meta,sender,sender_type,sender_id,age,education,croatian-knowledge,occupation,,ended_on,duration,time_run,time_render,time_show,time_end,time_commit,timestamp,time_switch,openLabId,type,task,project,status,code,confirmationCode,response,response_action,stimulus,context,island_type,transfer_s,transfer_c,id,movement,opposition,category
"{""labjs_version"":""20.2.4"",""labjs_build"":{""flavor"":""production"",""commit"":""f5b4a49f956347addd546a832a3327688c2c0fef""},""location"":""https://open-lab.online/test/jednostavno-test/679f72a4131ae225e46b470f"",""userAgent"":""Mozilla/5.0 (Android 15; Mobile; rv:134.0) Gecko/134.0 Firefox/134.0"",""platform"":""Linux armv81"",""language"":""en-GB"",""locale"":""en-GB"",""timeZone"":""Europe/Zagreb"",""timezoneOffset"":-60,""screen_width"":447,""screen_height"":994,""scroll_width"":1078,""scroll_height"":2044,""window_innerWidth"":1078,""window_innerHeight"":2031,""devicePixelRatio"":2.727272727272727}",Demography form,html.Form,0,23,bachelor,mother-tongue,programski inženjer,,form submission,32075.9,3995,4010.38,4035.1,36111,36118,2025-02-02T13:27:35.262Z,36129.94,0xszmjDz0U,incremental,jednostavno-test,679df971131ae225e46b4282,participant,hcpib7hgm6nnouht,404361,,,,,,,,,,,
,context,canvas.Screen,1_0,,,,,,response,11711.059999999998,36121,36099.7,36129.94,47841,47844,2025-02-02T13:27:46.989Z,47852.3,0xszmjDz0U,incremental,jednostavno-test,679df971131ae225e46b4282,participant,hcpib7hgm6nnouht,,,click,,,,,,,,,
,stimulus,canvas.Screen,1_1,,,,,,response,18338.699999999997,47847,47844.02,47852.3,66191,66198,2025-02-02T13:28:05.342Z,66206.38,0xszmjDz0U,incremental,jednostavno-test,679df971131ae225e46b4282,participant,hcpib7hgm6nnouht,,7,click @7,,,,,,,,,
,inter-stimulus,canvas.Screen,1_2,,,,,,response,2449.6199999999953,66199,66199.74,66206.38,68656,68662,2025-02-02T13:28:07.807Z,68671.74,0xszmjDz0U,incremental,jednostavno-test,679df971131ae225e46b4282,participant,hcpib7hgm6nnouht,,,mousedown,,,,,,,,,
,context,canvas.Screen,1_3,,,,,,response,2871.2599999999948,68664,68655.56,68671.74,71543,71554,2025-02-02T13:28:10.697Z,71563.42,0xszmjDz0U,incremental,jednostavno-test,679df971131ae225e46b4282,participant,hcpib7hgm6nnouht,,,click,,,,,,,,,
,stimulus,canvas.Screen,1_4,,,,,,response,14187.580000000002,71557,71538.3,71563.42,85751,85763,2025-02-02T13:28:24.907Z,85765.38,0xszmjDz0U,incremental,jednostavno-test,679df971131ae225e46b4282,participant,hcpib7hgm6nnouht,,3,click @3,,,,,,,,,
,inter-stimulus,canvas.Screen,1_5,,,,,,response,2166.6199999999953,85766,85745.98,85765.38,87932,87938,2025-02-02T13:28:27.081Z,87946.98,0xszmjDz0U,incremental,jednostavno-test,679df971131ae225e46b4282,participant,hcpib7hgm6nnouht,,,mousedown,,,,,,,,,
,context,canvas.Screen,1_6,,,,,,response,3692.020000000004,87941,87931.16,87946.98,91639,91644,2025-02-02T13:28:30.788Z,91655.08,0xszmjDz0U,incremental,jednostavno-test,679df971131ae225e46b4282,participant,hcpib7hgm6nnouht,,,click,,,,,,,,,
,stimulus,canvas.Screen,1_7_0,,,,,,response,5685.919999999998,91649,91635.5,91655.08,97341,97346,2025-02-02T13:28:36.489Z,97348.3,0xszmjDz0U,incremental,jednostavno-test,679df971131ae225e46b4282,participant,hcpib7hgm6nnouht,,6,click @6,,,,,,,,,
,Timer frame,html.Frame,1_7,,,,,,,5690.919999999998,91646,91635.5,91655.08,97346,97347,2025-02-02T13:28:36.491Z,97348.3,0xszmjDz0U,incremental,jednostavno-test,679df971131ae225e46b4282,participant,hcpib7hgm6nnouht,,,,,,,,,,,,
,inter-stimulus,canvas.Screen,1_8,,,,,,response,1218.699999999997,97348,97339.42,97348.3,98567,98575,2025-02-02T13:28:37.719Z,98587.18,0xszmjDz0U,incremental,jednostavno-test,679df971131ae225e46b4282,participant,hcpib7hgm6nnouht,,,mousedown,,,,,,,,,
,First stimuli,flow.Sequence,1,,,,,,completion,62437.06,36120,36099.7,36129.94,98567,98578,2025-02-02T13:28:37.721Z,98587.18,0xszmjDz0U,incremental,jednostavno-test,679df971131ae225e46b4282,participant,hcpib7hgm6nnouht,,,,,,,,,,,,
,context,canvas.Screen,2_0_0_0,,,,,,response,5354.820000000007,98581,98566.32,98587.18,103942,103946,2025-02-02T13:28:43.090Z,103955.62,0xszmjDz0U,incremental,jednostavno-test,679df971131ae225e46b4282,participant,hcpib7hgm6nnouht,,,click,Koliko piva Ivan žali što je prolio?,Ivan žali što je prolio 3 litre piva.,fac,,,33,ad_measure,ob_dir + ad_mode + ad_measure,interrogative pronouns
,Timer frame,html.Frame,2_0_0,,,,,,,5358.820000000007,98580,98566.32,98587.18,103946,103947,2025-02-02T13:28:43.091Z,103955.62,0xszmjDz0U,incremental,jednostavno-test,679df971131ae225e46b4282,participant,hcpib7hgm6nnouht,,,,Koliko piva Ivan žali što je prolio?,Ivan žali što je prolio 3 litre piva.,fac,,,33,ad_measure,ob_dir + ad_mode + ad_measure,interrogative pronouns
,stimulus,canvas.Screen,2_0_1_0,,,,,,response,3899.3800000000047,103949,103947.38,103955.62,107855,107861,2025-02-02T13:28:47.005Z,107861.8,0xszmjDz0U,incremental,jednostavno-test,679df971131ae225e46b4282,participant,hcpib7hgm6nnouht,,7,click @7,Koliko piva Ivan žali što je prolio?,Ivan žali što je prolio 3 litre piva.,fac,,,33,ad_measure,ob_dir + ad_mode + ad_measure,interrogative pronouns
,Timer frame,html.Frame,2_0_1,,,,,,,3905.3800000000047,103948,103947.38,103955.62,107861,107863,2025-02-02T13:28:47.006Z,107861.8,0xszmjDz0U,incremental,jednostavno-test,679df971131ae225e46b4282,participant,hcpib7hgm6nnouht,,,,Koliko piva Ivan žali što je prolio?,Ivan žali što je prolio 3 litre piva.,fac,,,33,ad_measure,ob_dir + ad_mode + ad_measure,interrogative pronouns
,inter-stimulus,canvas.Screen,2_0_2,,,,,,response,1164.199999999997,107864,107852.44,107861.8,109026,109030,2025-02-02T13:28:48.175Z,109042.6,0xszmjDz0U,incremental,jednostavno-test,679df971131ae225e46b4282,participant,hcpib7hgm6nnouht,,,mousedown,Koliko piva Ivan žali što je prolio?,Ivan žali što je prolio 3 litre piva.,fac,,,33,ad_measure,ob_dir + ad_mode + ad_measure,interrogative pronouns
,Sequence,flow.Sequence,2_0,,,,,,completion,10438.820000000007,98579,98566.32,98587.18,109026,109033,2025-02-02T13:28:48.177Z,109042.6,0xszmjDz0U,incremental,jednostavno-test,679df971131ae225e46b4282,participant,hcpib7hgm6nnouht,,,,Koliko piva Ivan žali što je prolio?,Ivan žali što je prolio 3 litre piva.,fac,,,33,ad_measure,ob_dir + ad_mode + ad_measure,interrogative pronouns
,context,canvas.Screen,2_1_0_0,,,,,,response,3402.399999999994,109037,109025.48,109042.6,112445,112449,2025-02-02T13:28:51.593Z,112453.52,0xszmjDz0U,incremental,jednostavno-test,679df971131ae225e46b4282,participant,hcpib7hgm6nnouht,,,click,U hladnjaku je bio sladoled koji je otac pitao za koga da kupi u trgovini.,Otac je pitao za koga da kupi sladoled u trgovini.,iq,0,0,15,ob_indir,ob_dir + ob_indir,relative pronouns
,Timer frame,html.Frame,2_1_0,,,,,,,3407.399999999994,109034,109025.48,109042.6,112450,112450,2025-02-02T13:28:51.594Z,112453.52,0xszmjDz0U,incremental,jednostavno-test,679df971131ae225e46b4282,participant,hcpib7hgm6nnouht,,,,U hladnjaku je bio sladoled koji je otac pitao za koga da kupi u trgovini.,Otac je pitao za koga da kupi sladoled u trgovini.,iq,0,0,15,ob_indir,ob_dir + ob_indir,relative pronouns
,stimulus,canvas.Screen,2_1_1_0,,,,,,response,5565.479999999996,112452,112441.78,112453.52,118019,118026,2025-02-02T13:28:57.170Z,118037.88,0xszmjDz0U,incremental,jednostavno-test,679df971131ae225e46b4282,participant,hcpib7hgm6nnouht,,1,click @1,U hladnjaku je bio sladoled koji je otac pitao za koga da kupi u trgovini.,Otac je pitao za koga da kupi sladoled u trgovini.,iq,0,0,15,ob_indir,ob_dir + ob_indir,relative pronouns
,Timer frame,html.Frame,2_1_1,,,,,,,5578.479999999996,112451,112441.78,112453.52,118032,118034,2025-02-02T13:28:57.179Z,118037.88,0xszmjDz0U,incremental,jednostavno-test,679df971131ae225e46b4282,participant,hcpib7hgm6nnouht,,,,U hladnjaku je bio sladoled koji je otac pitao za koga da kupi u trgovini.,Otac je pitao za koga da kupi sladoled u trgovini.,iq,0,0,15,ob_indir,ob_dir + ob_indir,relative pronouns
,inter-stimulus,canvas.Screen,2_1_2,,,,,,response,1688.1199999999953,118036,118016.54,118037.88,119726,119731,2025-02-02T13:28:58.875Z,119740.04,0xszmjDz0U,incremental,jednostavno-test,679df971131ae225e46b4282,participant,hcpib7hgm6nnouht,,,mousedown,U hladnjaku je bio sladoled koji je otac pitao za koga da kupi u trgovini.,Otac je pitao za koga da kupi sladoled u trgovini.,iq,0,0,15,ob_indir,ob_dir + ob_indir,relative pronouns
,Sequence,flow.Sequence,2_1,,,,,,completion,10683.399999999994,109034,109025.48,109042.6,119726,119735,2025-02-02T13:28:58.878Z,119740.04,0xszmjDz0U,incremental,jednostavno-test,679df971131ae225e46b4282,participant,hcpib7hgm6nnouht,,,,U hladnjaku je bio sladoled koji je otac pitao za koga da kupi u trgovini.,Otac je pitao za koga da kupi sladoled u trgovini.,iq,0,0,15,ob_indir,ob_dir + ob_indir,relative pronouns
,context,canvas.Screen,2_2_0_0,,,,,,response,2910.9600000000064,119739,119724.88,119740.04,122651,122654,2025-02-02T13:29:01.799Z,122664.8,0xszmjDz0U,incremental,jednostavno-test,679df971131ae225e46b4282,participant,hcpib7hgm6nnouht,,,click,Došla je ta djevojka o kojoj sam pitao što je jela u restoranu.,Pitao sam što je Jasna jela u restoranu.,iq,,0,10,sub,sub + ob,relative pronouns
,Timer frame,html.Frame,2_2_0,,,,,,,2915.9600000000064,119737,119724.88,119740.04,122656,122657,2025-02-02T13:29:01.801Z,122664.8,0xszmjDz0U,incremental,jednostavno-test,679df971131ae225e46b4282,participant,hcpib7hgm6nnouht,,,,Došla je ta djevojka o kojoj sam pitao što je jela u restoranu.,Pitao sam što je Jasna jela u restoranu.,iq,,0,10,sub,sub + ob,relative pronouns
,stimulus,canvas.Screen,2_2_1_0,,,,,,response,4048.199999999997,122660,122646.4,122664.8,126713,126719,2025-02-02T13:29:05.863Z,126728.8,0xszmjDz0U,incremental,jednostavno-test,679df971131ae225e46b4282,participant,hcpib7hgm6nnouht,,7,click @7,Došla je ta djevojka o kojoj sam pitao što je jela u restoranu.,Pitao sam što je Jasna jela u restoranu.,iq,,0,10,sub,sub + ob,relative pronouns
,Timer frame,html.Frame,2_2_1,,,,,,,4055.199999999997,122658,122646.4,122664.8,126720,126721,2025-02-02T13:29:05.864Z,126728.8,0xszmjDz0U,incremental,jednostavno-test,679df971131ae225e46b4282,participant,hcpib7hgm6nnouht,,,,Došla je ta djevojka o kojoj sam pitao što je jela u restoranu.,Pitao sam što je Jasna jela u restoranu.,iq,,0,10,sub,sub + ob,relative pronouns
,inter-stimulus,canvas.Screen,2_2_2,,,,,,response,1202.199999999997,126721,126720.54,126728.8,127931,127935,2025-02-02T13:29:07.080Z,127942.94,0xszmjDz0U,incremental,jednostavno-test,679df971131ae225e46b4282,participant,hcpib7hgm6nnouht,,,mousedown,Došla je ta djevojka o kojoj sam pitao što je jela u restoranu.,Pitao sam što je Jasna jela u restoranu.,iq,,0,10,sub,sub + ob,relative pronouns
,Sequence,flow.Sequence,2_2,,,,,,completion,8190.960000000006,119737,119724.88,119740.04,127931,127939,2025-02-02T13:29:07.083Z,127942.94,0xszmjDz0U,incremental,jednostavno-test,679df971131ae225e46b4282,participant,hcpib7hgm6nnouht,,,,Došla je ta djevojka o kojoj sam pitao što je jela u restoranu.,Pitao sam što je Jasna jela u restoranu.,iq,,0,10,sub,sub + ob,relative pronouns
,context,canvas.Screen,2_3_0_0,,,,,,response,4649.059999999998,127942,127930.1,127942.94,132592,132598,2025-02-02T13:29:11.742Z,132610.08,0xszmjDz0U,incremental,jednostavno-test,679df971131ae225e46b4282,participant,hcpib7hgm6nnouht,,,click,"Kome, učitelj je pitao, što treba ponovno objasniti?",Učitelj je pitao što treba učenicima ponovno objasniti..,iq,0,36,4,ob_dir,ob_dir + ob_indir,interrogative pronouns
,Timer frame,html.Frame,2_3_0,,,,,,,4657.059999999998,127941,127930.1,127942.94,132600,132601,2025-02-02T13:29:11.745Z,132610.08,0xszmjDz0U,incremental,jednostavno-test,679df971131ae225e46b4282,participant,hcpib7hgm6nnouht,,,,"Kome, učitelj je pitao, što treba ponovno objasniti?",Učitelj je pitao što treba učenicima ponovno objasniti..,iq,0,36,4,ob_dir,ob_dir + ob_indir,interrogative pronouns
,stimulus,canvas.Screen,2_3_1_0,,,,,,response,3954.920000000013,132605,132588.04,132610.08,136565,136571,2025-02-02T13:29:15.715Z,136574.94,0xszmjDz0U,incremental,jednostavno-test,679df971131ae225e46b4282,participant,hcpib7hgm6nnouht,,7,click @7,"Kome, učitelj je pitao, što treba ponovno objasniti?",Učitelj je pitao što treba učenicima ponovno objasniti..,iq,0,36,4,ob_dir,ob_dir + ob_indir,interrogative pronouns
,Timer frame,html.Frame,2_3_1,,,,,,,3961.920000000013,132602,132588.04,132610.08,136572,136573,2025-02-02T13:29:15.717Z,136574.94,0xszmjDz0U,incremental,jednostavno-test,679df971131ae225e46b4282,participant,hcpib7hgm6nnouht,,,,"Kome, učitelj je pitao, što treba ponovno objasniti?",Učitelj je pitao što treba učenicima ponovno objasniti..,iq,0,36,4,ob_dir,ob_dir + ob_indir,interrogative pronouns
,inter-stimulus,canvas.Screen,2_3_2,,,,,,response,1256.0599999999977,136573,136561.44,136574.94,137831,137835,2025-02-02T13:29:16.979Z,137846.86,0xszmjDz0U,incremental,jednostavno-test,679df971131ae225e46b4282,participant,hcpib7hgm6nnouht,,,mousedown,"Kome, učitelj je pitao, što treba ponovno objasniti?",Učitelj je pitao što treba učenicima ponovno objasniti..,iq,0,36,4,ob_dir,ob_dir + ob_indir,interrogative pronouns
,Sequence,flow.Sequence,2_3,,,,,,completion,9888.059999999998,127940,127930.1,127942.94,137831,137838,2025-02-02T13:29:16.982Z,137846.86,0xszmjDz0U,incremental,jednostavno-test,679df971131ae225e46b4282,participant,hcpib7hgm6nnouht,,,,"Kome, učitelj je pitao, što treba ponovno objasniti?",Učitelj je pitao što treba učenicima ponovno objasniti..,iq,0,36,4,ob_dir,ob_dir + ob_indir,interrogative pronouns
,context,canvas.Screen,2_4_0_0,,,,,,response,3840.140000000014,137841,137829.86,137846.86,141687,141691,2025-02-02T13:29:20.835Z,141696.44,0xszmjDz0U,incremental,jednostavno-test,679df971131ae225e46b4282,participant,hcpib7hgm6nnouht,,,click,Kome smo poklonili novi bicikl?,Dobrom poštaru poklonili smo novi bicikl.,gf,,0,48,filler,filler,filler
,Timer frame,html.Frame,2_4_0,,,,,,,3845.140000000014,137840,137829.86,137846.86,141692,141693,2025-02-02T13:29:20.837Z,141696.44,0xszmjDz0U,incremental,jednostavno-test,679df971131ae225e46b4282,participant,hcpib7hgm6nnouht,,,,Kome smo poklonili novi bicikl?,Dobrom poštaru poklonili smo novi bicikl.,gf,,0,48,filler,filler,filler
,stimulus,canvas.Screen,2_4_1_0,,,,,,response,2197.5599999999977,141695,141683.26,141696.44,143894,143899,2025-02-02T13:29:23.043Z,143901.92,0xszmjDz0U,incremental,jednostavno-test,679df971131ae225e46b4282,participant,hcpib7hgm6nnouht,,7,click @7,Kome smo poklonili novi bicikl?,Dobrom poštaru poklonili smo novi bicikl.,gf,,0,48,filler,filler,filler
,Timer frame,html.Frame,2_4_1,,,,,,,2203.5599999999977,141694,141683.26,141696.44,143900,143901,2025-02-02T13:29:23.045Z,143901.92,0xszmjDz0U,incremental,jednostavno-test,679df971131ae225e46b4282,participant,hcpib7hgm6nnouht,,,,Kome smo poklonili novi bicikl?,Dobrom poštaru poklonili smo novi bicikl.,gf,,0,48,filler,filler,filler
,inter-stimulus,canvas.Screen,2_4_2,,,,,,response,1072.0799999999872,143902,143890.56,143901.92,144974,144991,2025-02-02T13:29:24.135Z,145000.7,0xszmjDz0U,incremental,jednostavno-test,679df971131ae225e46b4282,participant,hcpib7hgm6nnouht,,,mousedown,Kome smo poklonili novi bicikl?,Dobrom poštaru poklonili smo novi bicikl.,gf,,0,48,filler,filler,filler
,Sequence,flow.Sequence,2_4,,,,,,completion,7127.140000000014,137839,137829.86,137846.86,144974,144994,2025-02-02T13:29:24.138Z,145000.7,0xszmjDz0U,incremental,jednostavno-test,679df971131ae225e46b4282,participant,hcpib7hgm6nnouht,,,,Kome smo poklonili novi bicikl?,Dobrom poštaru poklonili smo novi bicikl.,gf,,0,48,filler,filler,filler
,context,canvas.Screen,2_5_0_0,,,,,,response,2105.2999999999884,144997,144973.2,145000.7,147106,147113,2025-02-02T13:29:26.257Z,147115.62,0xszmjDz0U,incremental,jednostavno-test,679df971131ae225e46b4282,participant,hcpib7hgm6nnouht,,,click,Moj se prijatelj ne može sjetiti gdje živi Karina.,Karina živi u Osijeku.,gf,,0,49,filler,filler,filler
,Timer frame,html.Frame,2_5_0,,,,,,,2113.2999999999884,144995,144973.2,145000.7,147114,147115,2025-02-02T13:29:26.259Z,147115.62,0xszmjDz0U,incremental,jednostavno-test,679df971131ae225e46b4282,participant,hcpib7hgm6nnouht,,,,Moj se prijatelj ne može sjetiti gdje živi Karina.,Karina živi u Osijeku.,gf,,0,49,filler,filler,filler
,stimulus,canvas.Screen,2_5_1_0,,,,,,response,3682.3800000000047,147118,147103.02,147115.62,150798,150803,2025-02-02T13:29:29.947Z,150808.32,0xszmjDz0U,incremental,jednostavno-test,679df971131ae225e46b4282,participant,hcpib7hgm6nnouht,,7,click @7,Moj se prijatelj ne može sjetiti gdje živi Karina.,Karina živi u Osijeku.,gf,,0,49,filler,filler,filler
,Timer frame,html.Frame,2_5_1,,,,,,,3688.3800000000047,147116,147103.02,147115.62,150804,150805,2025-02-02T13:29:29.949Z,150808.32,0xszmjDz0U,incremental,jednostavno-test,679df971131ae225e46b4282,participant,hcpib7hgm6nnouht,,,,Moj se prijatelj ne može sjetiti gdje živi Karina.,Karina živi u Osijeku.,gf,,0,49,filler,filler,filler
,inter-stimulus,canvas.Screen,2_5_2,,,,,,response,1108.679999999993,150806,150794.6,150808.32,151917,151922,2025-02-02T13:29:31.066Z,151940.04,0xszmjDz0U,incremental,jednostavno-test,679df971131ae225e46b4282,participant,hcpib7hgm6nnouht,,,mousedown,Moj se prijatelj ne može sjetiti gdje živi Karina.,Karina živi u Osijeku.,gf,,0,49,filler,filler,filler
,Sequence,flow.Sequence,2_5,,,,,,completion,6916.299999999988,144995,144973.2,145000.7,151917,151925,2025-02-02T13:29:31.069Z,151940.04,0xszmjDz0U,incremental,jednostavno-test,679df971131ae225e46b4282,participant,hcpib7hgm6nnouht,,,,Moj se prijatelj ne može sjetiti gdje živi Karina.,Karina živi u Osijeku.,gf,,0,49,filler,filler,filler
,context,canvas.Screen,2_6_0_0,,,,,,response,2915.959999999992,151929,151917.08,151940.04,154856,154861,2025-02-02T13:29:34.004Z,154864.94,0xszmjDz0U,incremental,jednostavno-test,679df971131ae225e46b4282,participant,hcpib7hgm6nnouht,,,click,Što je Anton napisao u pismu?,Anton je u pismu napisao besmislicu.,gf,,,45,filler,filler,filler
,Timer frame,html.Frame,2_6_0,,,,,,,2920.959999999992,151927,151917.08,151940.04,154861,154862,2025-02-02T13:29:34.006Z,154864.94,0xszmjDz0U,incremental,jednostavno-test,679df971131ae225e46b4282,participant,hcpib7hgm6nnouht,,,,Što je Anton napisao u pismu?,Anton je u pismu napisao besmislicu.,gf,,,45,filler,filler,filler
,stimulus,canvas.Screen,2_6_1_0,,,,,,response,1838.0599999999977,154864,154852.54,154864.94,156703,156712,2025-02-02T13:29:35.856Z,156715.84,0xszmjDz0U,incremental,jednostavno-test,679df971131ae225e46b4282,participant,hcpib7hgm6nnouht,,7,click @7,Što je Anton napisao u pismu?,Anton je u pismu napisao besmislicu.,gf,,,45,filler,filler,filler
,Timer frame,html.Frame,2_6_1,,,,,,,1849.0599999999977,154863,154852.54,154864.94,156714,156715,2025-02-02T13:29:35.858Z,156715.84,0xszmjDz0U,incremental,jednostavno-test,679df971131ae225e46b4282,participant,hcpib7hgm6nnouht,,,,Što je Anton napisao u pismu?,Anton je u pismu napisao besmislicu.,gf,,,45,filler,filler,filler
,inter-stimulus,canvas.Screen,2_6_2,,,,,,response,1028.1600000000035,156716,156698.82,156715.84,157744,157748,2025-02-02T13:29:36.893Z,157765.28,0xszmjDz0U,incremental,jednostavno-test,679df971131ae225e46b4282,participant,hcpib7hgm6nnouht,,,mousedown,Što je Anton napisao u pismu?,Anton je u pismu napisao besmislicu.,gf,,,45,filler,filler,filler
,Sequence,flow.Sequence,2_6,,,,,,completion,5803.959999999992,151927,151917.08,151940.04,157744,157751,2025-02-02T13:29:36.896Z,157765.28,0xszmjDz0U,incremental,jednostavno-test,679df971131ae225e46b4282,participant,hcpib7hgm6nnouht,,,,Što je Anton napisao u pismu?,Anton je u pismu napisao besmislicu.,gf,,,45,filler,filler,filler
,context,canvas.Screen,2_7_0_0,,,,,,response,3015.720000000001,157755,157743.2,157765.28,160781,160785,2025-02-02T13:29:39.929Z,160790.06,0xszmjDz0U,incremental,jednostavno-test,679df971131ae225e46b4282,participant,hcpib7hgm6nnouht,,,click,Kogo je Ivan požalio što je pozvao na zabavu?,Ivan je požalio što je šefa pozvao na zabavu.,fac,,,31,ob_dir,ob_dir + ad_mode + ad_measure,interrogative pronouns
,Timer frame,html.Frame,2_7_0,,,,,,,3020.720000000001,157754,157743.2,157765.28,160786,160787,2025-02-02T13:29:39.931Z,160790.06,0xszmjDz0U,incremental,jednostavno-test,679df971131ae225e46b4282,participant,hcpib7hgm6nnouht,,,,Kogo je Ivan požalio što je pozvao na zabavu?,Ivan je požalio što je šefa pozvao na zabavu.,fac,,,31,ob_dir,ob_dir + ad_mode + ad_measure,interrogative pronouns
,stimulus,canvas.Screen,2_7_1_0,,,,,,response,2204.9400000000023,160790,160778.1,160790.06,162995,163001,2025-02-02T13:29:42.145Z,163004.84,0xszmjDz0U,incremental,jednostavno-test,679df971131ae225e46b4282,participant,hcpib7hgm6nnouht,,7,click @7,Kogo je Ivan požalio što je pozvao na zabavu?,Ivan je požalio što je šefa pozvao na zabavu.,fac,,,31,ob_dir,ob_dir + ad_mode + ad_measure,interrogative pronouns
,Timer frame,html.Frame,2_7_1,,,,,,,2210.9400000000023,160789,160778.1,160790.06,163001,163003,2025-02-02T13:29:42.146Z,163004.84,0xszmjDz0U,incremental,jednostavno-test,679df971131ae225e46b4282,participant,hcpib7hgm6nnouht,,,,Kogo je Ivan požalio što je pozvao na zabavu?,Ivan je požalio što je šefa pozvao na zabavu.,fac,,,31,ob_dir,ob_dir + ad_mode + ad_measure,interrogative pronouns
,inter-stimulus,canvas.Screen,2_7_2,,,,,,response,859.1600000000035,163004,162992.92,163004.84,163864,163869,2025-02-02T13:29:43.012Z,163872.72,0xszmjDz0U,incremental,jednostavno-test,679df971131ae225e46b4282,participant,hcpib7hgm6nnouht,,,mousedown,Kogo je Ivan požalio što je pozvao na zabavu?,Ivan je požalio što je šefa pozvao na zabavu.,fac,,,31,ob_dir,ob_dir + ad_mode + ad_measure,interrogative pronouns
,Sequence,flow.Sequence,2_7,,,,,,completion,6098.720000000001,157754,157743.2,157765.28,163864,163871,2025-02-02T13:29:43.015Z,163872.72,0xszmjDz0U,incremental,jednostavno-test,679df971131ae225e46b4282,participant,hcpib7hgm6nnouht,,,,Kogo je Ivan požalio što je pozvao na zabavu?,Ivan je požalio što je šefa pozvao na zabavu.,fac,,,31,ob_dir,ob_dir + ad_mode + ad_measure,interrogative pronouns
,context,canvas.Screen,2_8_0_0,,,,,,response,2192.279999999999,163873,163863.06,163872.72,166065,166068,2025-02-02T13:29:45.212Z,166070.84,0xszmjDz0U,incremental,jednostavno-test,679df971131ae225e46b4282,participant,hcpib7hgm6nnouht,,,click,Majka je primijetila da se Slobodan vratio kući.,Slobodan se vratio kući.,gf,0,0,44,filler,filler,filler
,Timer frame,html.Frame,2_8_0,,,,,,,2196.279999999999,163872,163863.06,163872.72,166069,166071,2025-02-02T13:29:45.214Z,166070.84,0xszmjDz0U,incremental,jednostavno-test,679df971131ae225e46b4282,participant,hcpib7hgm6nnouht,,,,Majka je primijetila da se Slobodan vratio kući.,Slobodan se vratio kući.,gf,0,0,44,filler,filler,filler
,stimulus,canvas.Screen,2_8_1_0,,,,,,response,4284.1600000000035,166072,166061.34,166070.84,170355,170357,2025-02-02T13:29:49.501Z,170359.64,0xszmjDz0U,incremental,jednostavno-test,679df971131ae225e46b4282,participant,hcpib7hgm6nnouht,,7,click @7,Majka je primijetila da se Slobodan vratio kući.,Slobodan se vratio kući.,gf,0,0,44,filler,filler,filler
,Timer frame,html.Frame,2_8_1,,,,,,,4287.1600000000035,166071,166061.34,166070.84,170358,170358,2025-02-02T13:29:49.502Z,170359.64,0xszmjDz0U,incremental,jednostavno-test,679df971131ae225e46b4282,participant,hcpib7hgm6nnouht,,,,Majka je primijetila da se Slobodan vratio kući.,Slobodan se vratio kući.,gf,0,0,44,filler,filler,filler
,inter-stimulus,canvas.Screen,2_8_2,,,,,,response,835.359999999986,170359,170352.98,170359.64,171195,171199,2025-02-02T13:29:50.343Z,171210.7,0xszmjDz0U,incremental,jednostavno-test,679df971131ae225e46b4282,participant,hcpib7hgm6nnouht,,,mousedown,Majka je primijetila da se Slobodan vratio kući.,Slobodan se vratio kući.,gf,0,0,44,filler,filler,filler
,Sequence,flow.Sequence,2_8,,,,,,completion,7322.279999999999,163872,163863.06,163872.72,171195,171202,2025-02-02T13:29:50.345Z,171210.7,0xszmjDz0U,incremental,jednostavno-test,679df971131ae225e46b4282,participant,hcpib7hgm6nnouht,,,,Majka je primijetila da se Slobodan vratio kući.,Slobodan se vratio kući.,gf,0,0,44,filler,filler,filler
,context,canvas.Screen,2_9_0_0,,,,,,response,4496.299999999988,171205,171194.5,171210.7,175707,175710,2025-02-02T13:29:54.853Z,175713.64,0xszmjDz0U,incremental,jednostavno-test,679df971131ae225e46b4282,participant,hcpib7hgm6nnouht,,,click,Kamo na ljeto ide Slavko na work and travel program?,Na ljeto Slavko ide u USA na work and travel program.,iq,0,0,8,ad,ad + ad+ ad,interrogative pronouns
,Timer frame,html.Frame,2_9_0,,,,,,,4499.299999999988,171203,171194.5,171210.7,175710,175712,2025-02-02T13:29:54.855Z,175713.64,0xszmjDz0U,incremental,jednostavno-test,679df971131ae225e46b4282,participant,hcpib7hgm6nnouht,,,,Kamo na ljeto ide Slavko na work and travel program?,Na ljeto Slavko ide u USA na work and travel program.,iq,0,0,8,ad,ad + ad+ ad,interrogative pronouns
,stimulus,canvas.Screen,2_9_1_0,,,,,,response,4101.359999999986,175714,175703.04,175713.64,179815,179820,2025-02-02T13:29:58.964Z,179828.02,0xszmjDz0U,incremental,jednostavno-test,679df971131ae225e46b4282,participant,hcpib7hgm6nnouht,,7,click @7,Kamo na ljeto ide Slavko na work and travel program?,Na ljeto Slavko ide u USA na work and travel program.,iq,0,0,8,ad,ad + ad+ ad,interrogative pronouns
,Timer frame,html.Frame,2_9_1,,,,,,,4106.359999999986,175713,175703.04,175713.64,179820,179821,2025-02-02T13:29:58.965Z,179828.02,0xszmjDz0U,incremental,jednostavno-test,679df971131ae225e46b4282,participant,hcpib7hgm6nnouht,,,,Kamo na ljeto ide Slavko na work and travel program?,Na ljeto Slavko ide u USA na work and travel program.,iq,0,0,8,ad,ad + ad+ ad,interrogative pronouns
,inter-stimulus,canvas.Screen,2_9_2,,,,,,response,991.9800000000105,179822,179812.14,179828.02,180820,180825,2025-02-02T13:29:59.968Z,180836.08,0xszmjDz0U,incremental,jednostavno-test,679df971131ae225e46b4282,participant,hcpib7hgm6nnouht,,,mousedown,Kamo na ljeto ide Slavko na work and travel program?,Na ljeto Slavko ide u USA na work and travel program.,iq,0,0,8,ad,ad + ad+ ad,interrogative pronouns
,Sequence,flow.Sequence,2_9,,,,,,completion,9609.299999999988,171203,171194.5,171210.7,180820,180826,2025-02-02T13:29:59.970Z,180836.08,0xszmjDz0U,incremental,jednostavno-test,679df971131ae225e46b4282,participant,hcpib7hgm6nnouht,,,,Kamo na ljeto ide Slavko na work and travel program?,Na ljeto Slavko ide u USA na work and travel program.,iq,0,0,8,ad,ad + ad+ ad,interrogative pronouns
,context,canvas.Screen,2_10_0_0,,,,,,response,3460.920000000013,180829,180819.58,180836.08,184297,184299,2025-02-02T13:30:03.443Z,184306.12,0xszmjDz0U,incremental,jednostavno-test,679df971131ae225e46b4282,participant,hcpib7hgm6nnouht,,,click,Kad Martin ne dolazi na posao?,Martin sutra ne dolazi na posao.,neg,,,21,ad_time,ad_time + ad_place,interrogative pronouns
,Timer frame,html.Frame,2_10_0,,,,,,,3463.920000000013,180827,180819.58,180836.08,184300,184301,2025-02-02T13:30:03.445Z,184306.12,0xszmjDz0U,incremental,jednostavno-test,679df971131ae225e46b4282,participant,hcpib7hgm6nnouht,,,,Kad Martin ne dolazi na posao?,Martin sutra ne dolazi na posao.,neg,,,21,ad_time,ad_time + ad_place,interrogative pronouns
,stimulus,canvas.Screen,2_10_1_0,,,,,,response,2215.8800000000047,184302,184294.92,184306.12,186522,186526,2025-02-02T13:30:05.670Z,186528.38,0xszmjDz0U,incremental,jednostavno-test,679df971131ae225e46b4282,participant,hcpib7hgm6nnouht,,7,click @7,Kad Martin ne dolazi na posao?,Martin sutra ne dolazi na posao.,neg,,,21,ad_time,ad_time + ad_place,interrogative pronouns
,Timer frame,html.Frame,2_10_1,,,,,,,2219.8800000000047,184301,184294.92,184306.12,186526,186527,2025-02-02T13:30:05.671Z,186528.38,0xszmjDz0U,incremental,jednostavno-test,679df971131ae225e46b4282,participant,hcpib7hgm6nnouht,,,,Kad Martin ne dolazi na posao?,Martin sutra ne dolazi na posao.,neg,,,21,ad_time,ad_time + ad_place,interrogative pronouns
,inter-stimulus,canvas.Screen,2_10_2,,,,,,response,950.6199999999953,186528,186520.26,186528.38,187479,187493,2025-02-02T13:30:06.638Z,187495.16,0xszmjDz0U,incremental,jednostavno-test,679df971131ae225e46b4282,participant,hcpib7hgm6nnouht,,,mousedown,Kad Martin ne dolazi na posao?,Martin sutra ne dolazi na posao.,neg,,,21,ad_time,ad_time + ad_place,interrogative pronouns
,Sequence,flow.Sequence,2_10,,,,,,completion,6642.920000000013,180827,180819.58,180836.08,187479,187497,2025-02-02T13:30:06.641Z,187495.16,0xszmjDz0U,incremental,jednostavno-test,679df971131ae225e46b4282,participant,hcpib7hgm6nnouht,,,,Kad Martin ne dolazi na posao?,Martin sutra ne dolazi na posao.,neg,,,21,ad_time,ad_time + ad_place,interrogative pronouns
,context,canvas.Screen,2_11_0_0,,,,,,response,3371.8399999999965,187499,187478.2,187495.16,190867,190870,2025-02-02T13:30:10.014Z,190875.52,0xszmjDz0U,incremental,jednostavno-test,679df971131ae225e46b4282,participant,hcpib7hgm6nnouht,,,click,Morat ću raditi u tim uvjetima u kojim baš sam pitao kako se ponašati.,Pitao sam kako se ponašati u takvim uvjetima.,iq,0,0,18,ad,ob + ad,relative pronouns
,Timer frame,html.Frame,2_11_0,,,,,,,3375.8399999999965,187498,187478.2,187495.16,190871,190871,2025-02-02T13:30:10.016Z,190875.52,0xszmjDz0U,incremental,jednostavno-test,679df971131ae225e46b4282,participant,hcpib7hgm6nnouht,,,,Morat ću raditi u tim uvjetima u kojim baš sam pitao kako se ponašati.,Pitao sam kako se ponašati u takvim uvjetima.,iq,0,0,18,ad,ob + ad,relative pronouns
,stimulus,canvas.Screen,2_11_1_0,,,,,,response,6415.4800000000105,190874,190864,190875.52,197291,197296,2025-02-02T13:30:16.440Z,197297.48,0xszmjDz0U,incremental,jednostavno-test,679df971131ae225e46b4282,participant,hcpib7hgm6nnouht,,1,click @1,Morat ću raditi u tim uvjetima u kojim baš sam pitao kako se ponašati.,Pitao sam kako se ponašati u takvim uvjetima.,iq,0,0,18,ad,ob + ad,relative pronouns
,Timer frame,html.Frame,2_11_1,,,,,,,6421.4800000000105,190873,190864,190875.52,197297,197298,2025-02-02T13:30:16.442Z,197297.48,0xszmjDz0U,incremental,jednostavno-test,679df971131ae225e46b4282,participant,hcpib7hgm6nnouht,,,,Morat ću raditi u tim uvjetima u kojim baš sam pitao kako se ponašati.,Pitao sam kako se ponašati u takvim uvjetima.,iq,0,0,18,ad,ob + ad,relative pronouns
,inter-stimulus,canvas.Screen,2_11_2,,,,,,response,1081.5199999999895,197298,197287.12,197297.48,198379,198385,2025-02-02T13:30:17.529Z,198396.72,0xszmjDz0U,incremental,jednostavno-test,679df971131ae225e46b4282,participant,hcpib7hgm6nnouht,,,mousedown,Morat ću raditi u tim uvjetima u kojim baš sam pitao kako se ponašati.,Pitao sam kako se ponašati u takvim uvjetima.,iq,0,0,18,ad,ob + ad,relative pronouns
,Sequence,flow.Sequence,2_11,,,,,,completion,10883.839999999997,187498,187478.2,187495.16,198379,198388,2025-02-02T13:30:17.531Z,198396.72,0xszmjDz0U,incremental,jednostavno-test,679df971131ae225e46b4282,participant,hcpib7hgm6nnouht,,,,Morat ću raditi u tim uvjetima u kojim baš sam pitao kako se ponašati.,Pitao sam kako se ponašati u takvim uvjetima.,iq,0,0,18,ad,ob + ad,relative pronouns
,context,canvas.Screen,2_12_0_0,,,,,,response,2125.279999999999,198389,198377.02,198396.72,200522,200528,2025-02-02T13:30:19.671Z,200536.36,0xszmjDz0U,incremental,jednostavno-test,679df971131ae225e46b4282,participant,hcpib7hgm6nnouht,,,click,Došao je dan kada Martin ne ide na posao.,Martin sutra ne dolazi na posao.,neg,,,27,ad_time,ad_time + ad_place,relative pronouns
,Timer frame,html.Frame,2_12_0,,,,,,,2132.279999999999,198389,198377.02,198396.72,200529,200530,2025-02-02T13:30:19.674Z,200536.36,0xszmjDz0U,incremental,jednostavno-test,679df971131ae225e46b4282,participant,hcpib7hgm6nnouht,,,,Došao je dan kada Martin ne ide na posao.,Martin sutra ne dolazi na posao.,neg,,,27,ad_time,ad_time + ad_place,relative pronouns
,stimulus,canvas.Screen,2_12_1_0,,,,,,response,3255.640000000014,200534,200519.2,200536.36,203792,203797,2025-02-02T13:30:22.940Z,203799.36,0xszmjDz0U,incremental,jednostavno-test,679df971131ae225e46b4282,participant,hcpib7hgm6nnouht,,7,click @7,Došao je dan kada Martin ne ide na posao.,Martin sutra ne dolazi na posao.,neg,,,27,ad_time,ad_time + ad_place,relative pronouns
,Timer frame,html.Frame,2_12_1,,,,,,,3261.640000000014,200533,200519.2,200536.36,203798,203799,2025-02-02T13:30:22.942Z,203799.36,0xszmjDz0U,incremental,jednostavno-test,679df971131ae225e46b4282,participant,hcpib7hgm6nnouht,,,,Došao je dan kada Martin ne ide na posao.,Martin sutra ne dolazi na posao.,neg,,,27,ad_time,ad_time + ad_place,relative pronouns
,inter-stimulus,canvas.Screen,2_12_2,,,,,,response,841.640000000014,203799,203789.78,203799.36,204641,204646,2025-02-02T13:30:23.790Z,204658.9,0xszmjDz0U,incremental,jednostavno-test,679df971131ae225e46b4282,participant,hcpib7hgm6nnouht,,,mousedown,Došao je dan kada Martin ne ide na posao.,Martin sutra ne dolazi na posao.,neg,,,27,ad_time,ad_time + ad_place,relative pronouns
,Sequence,flow.Sequence,2_12,,,,,,completion,6244.279999999999,198389,198377.02,198396.72,204641,204649,2025-02-02T13:30:23.792Z,204658.9,0xszmjDz0U,incremental,jednostavno-test,679df971131ae225e46b4282,participant,hcpib7hgm6nnouht,,,,Došao je dan kada Martin ne ide na posao.,Martin sutra ne dolazi na posao.,neg,,,27,ad_time,ad_time + ad_place,relative pronouns
,context,canvas.Screen,2_13_0_0,,,,,,response,1492.1000000000058,204651,204640.2,204658.9,206151,206153,2025-02-02T13:30:25.297Z,206154.36,0xszmjDz0U,incremental,jednostavno-test,679df971131ae225e46b4282,participant,hcpib7hgm6nnouht,,,click,Želim pojesti jabuku što?,Želim pojesti jabuku.,nf,,,51,filler,filler,filler
,Timer frame,html.Frame,2_13_0,,,,,,,1495.1000000000058,204650,204640.2,204658.9,206154,206154,2025-02-02T13:30:25.297Z,206154.36,0xszmjDz0U,incremental,jednostavno-test,679df971131ae225e46b4282,participant,hcpib7hgm6nnouht,,,,Želim pojesti jabuku što?,Želim pojesti jabuku.,nf,,,51,filler,filler,filler
,stimulus,canvas.Screen,2_13_1_0,,,,,,response,3584.640000000014,206156,206149.1,206154.36,209739,209744,2025-02-02T13:30:28.888Z,209748.12,0xszmjDz0U,incremental,jednostavno-test,679df971131ae225e46b4282,participant,hcpib7hgm6nnouht,,1,click @1,Želim pojesti jabuku što?,Želim pojesti jabuku.,nf,,,51,filler,filler,filler
,Timer frame,html.Frame,2_13_1,,,,,,,3590.640000000014,206155,206149.1,206154.36,209745,209745,2025-02-02T13:30:28.889Z,209748.12,0xszmjDz0U,incremental,jednostavno-test,679df971131ae225e46b4282,participant,hcpib7hgm6nnouht,,,,Želim pojesti jabuku što?,Želim pojesti jabuku.,nf,,,51,filler,filler,filler
,inter-stimulus,canvas.Screen,2_13_2,,,,,,response,1260.8800000000047,209746,209735.14,209748.12,211009,211014,2025-02-02T13:30:30.159Z,211029,0xszmjDz0U,incremental,jednostavno-test,679df971131ae225e46b4282,participant,hcpib7hgm6nnouht,,,mousedown,Želim pojesti jabuku što?,Želim pojesti jabuku.,nf,,,51,filler,filler,filler
,Sequence,flow.Sequence,2_13,,,,,,completion,6350.100000000006,204649,204640.2,204658.9,211009,211017,2025-02-02T13:30:30.161Z,211029,0xszmjDz0U,incremental,jednostavno-test,679df971131ae225e46b4282,participant,hcpib7hgm6nnouht,,,,Želim pojesti jabuku što?,Želim pojesti jabuku.,nf,,,51,filler,filler,filler
,context,canvas.Screen,2_14_0_0,,,,,,response,5209,211026,211008.52,211029,216238,216243,2025-02-02T13:30:35.386Z,216250.28,0xszmjDz0U,incremental,jednostavno-test,679df971131ae225e46b4282,participant,hcpib7hgm6nnouht,,,click,Koliko je moja sestra platila taksi od zračne luke.,Moja sestra platila je taksi od zračne luke.,gf,0,0,46,filler,filler,filler
,Timer frame,html.Frame,2_14_0,,,,,,,5214,211019,211008.52,211029,216243,216245,2025-02-02T13:30:35.388Z,216250.28,0xszmjDz0U,incremental,jednostavno-test,679df971131ae225e46b4282,participant,hcpib7hgm6nnouht,,,,Koliko je moja sestra platila taksi od zračne luke.,Moja sestra platila je taksi od zračne luke.,gf,0,0,46,filler,filler,filler
,stimulus,canvas.Screen,2_14_1_0,,,,,,response,3531.720000000001,216248,216233.18,216250.28,219782,219788,2025-02-02T13:30:38.932Z,219794.66,0xszmjDz0U,incremental,jednostavno-test,679df971131ae225e46b4282,participant,hcpib7hgm6nnouht,,7,click @7,Koliko je moja sestra platila taksi od zračne luke.,Moja sestra platila je taksi od zračne luke.,gf,0,0,46,filler,filler,filler
,Timer frame,html.Frame,2_14_1,,,,,,,3538.720000000001,216246,216233.18,216250.28,219789,219789,2025-02-02T13:30:38.933Z,219794.66,0xszmjDz0U,incremental,jednostavno-test,679df971131ae225e46b4282,participant,hcpib7hgm6nnouht,,,,Koliko je moja sestra platila taksi od zračne luke.,Moja sestra platila je taksi od zračne luke.,gf,0,0,46,filler,filler,filler
,inter-stimulus,canvas.Screen,2_14_2,,,,,,response,1343.3399999999965,219790,219775.22,219794.66,221138,221158,2025-02-02T13:30:40.302Z,221166.7,0xszmjDz0U,incremental,jednostavno-test,679df971131ae225e46b4282,participant,hcpib7hgm6nnouht,,,mousedown,Koliko je moja sestra platila taksi od zračne luke.,Moja sestra platila je taksi od zračne luke.,gf,0,0,46,filler,filler,filler
,Sequence,flow.Sequence,2_14,,,,,,completion,10109,211018,211008.52,211029,221138,221162,2025-02-02T13:30:40.307Z,221166.7,0xszmjDz0U,incremental,jednostavno-test,679df971131ae225e46b4282,participant,hcpib7hgm6nnouht,,,,Koliko je moja sestra platila taksi od zračne luke.,Moja sestra platila je taksi od zračne luke.,gf,0,0,46,filler,filler,filler
,context,canvas.Screen,2_15_0_0,,,,,,response,3300.2999999999884,221166,221138.24,221166.7,224467,224472,2025-02-02T13:30:43.616Z,224478.8,0xszmjDz0U,incremental,jednostavno-test,679df971131ae225e46b4282,participant,hcpib7hgm6nnouht,,,click,Naručio sam to jelo koje sam pitao tko je jeo u restoranu.,Pitao sam tko je jeo pleskavicu u restoranu.,iq,0,0,11,ob,sub + ob,relative pronouns
,Timer frame,html.Frame,2_15_0,,,,,,,3306.2999999999884,221164,221138.24,221166.7,224473,224475,2025-02-02T13:30:43.619Z,224478.8,0xszmjDz0U,incremental,jednostavno-test,679df971131ae225e46b4282,participant,hcpib7hgm6nnouht,,,,Naručio sam to jelo koje sam pitao tko je jeo u restoranu.,Pitao sam tko je jeo pleskavicu u restoranu.,iq,0,0,11,ob,sub + ob,relative pronouns
,stimulus,canvas.Screen,2_15_1_0,,,,,,response,3177.2000000000116,224478,224463.44,224478.8,227656,227659,2025-02-02T13:30:46.803Z,227666.5,0xszmjDz0U,incremental,jednostavno-test,679df971131ae225e46b4282,participant,hcpib7hgm6nnouht,,1,click @1,Naručio sam to jelo koje sam pitao tko je jeo u restoranu.,Pitao sam tko je jeo pleskavicu u restoranu.,iq,0,0,11,ob,sub + ob,relative pronouns
,Timer frame,html.Frame,2_15_1,,,,,,,3181.2000000000116,224476,224463.44,224478.8,227660,227660,2025-02-02T13:30:46.805Z,227666.5,0xszmjDz0U,incremental,jednostavno-test,679df971131ae225e46b4282,participant,hcpib7hgm6nnouht,,,,Naručio sam to jelo koje sam pitao tko je jeo u restoranu.,Pitao sam tko je jeo pleskavicu u restoranu.,iq,0,0,11,ob,sub + ob,relative pronouns
,inter-stimulus,canvas.Screen,2_15_2,,,,,,response,1183.5,227661,227654.7,227666.5,228850,228855,2025-02-02T13:30:47.999Z,228864.42,0xszmjDz0U,incremental,jednostavno-test,679df971131ae225e46b4282,participant,hcpib7hgm6nnouht,,,mousedown,Naručio sam to jelo koje sam pitao tko je jeo u restoranu.,Pitao sam tko je jeo pleskavicu u restoranu.,iq,0,0,11,ob,sub + ob,relative pronouns
,Sequence,flow.Sequence,2_15,,,,,,completion,7683.299999999988,221164,221138.24,221166.7,228850,228858,2025-02-02T13:30:48.001Z,228864.42,0xszmjDz0U,incremental,jednostavno-test,679df971131ae225e46b4282,participant,hcpib7hgm6nnouht,,,,Naručio sam to jelo koje sam pitao tko je jeo u restoranu.,Pitao sam tko je jeo pleskavicu u restoranu.,iq,0,0,11,ob,sub + ob,relative pronouns
,context,canvas.Screen,2_16_0_0,,,,,,response,3061.579999999987,228862,228849.58,228864.42,231926,231930,2025-02-02T13:30:51.074Z,231937.44,0xszmjDz0U,incremental,jednostavno-test,679df971131ae225e46b4282,participant,hcpib7hgm6nnouht,,,click,Kako u posljednje vrijeme moja mala sestra ne ponaša se?,U posljednje vrijeme moja mala sestra se ne ponaša kao prije.,neg,,,23,ad_mode,ad_mode + ad_measure,interrogative pronouns
,Timer frame,html.Frame,2_16_0,,,,,,,3067.579999999987,228860,228849.58,228864.42,231932,231933,2025-02-02T13:30:51.077Z,231937.44,0xszmjDz0U,incremental,jednostavno-test,679df971131ae225e46b4282,participant,hcpib7hgm6nnouht,,,,Kako u posljednje vrijeme moja mala sestra ne ponaša se?,U posljednje vrijeme moja mala sestra se ne ponaša kao prije.,neg,,,23,ad_mode,ad_mode + ad_measure,interrogative pronouns
,stimulus,canvas.Screen,2_16_1_0,,,,,,response,2605.5599999999977,231935,231922.38,231937.44,234543,234550,2025-02-02T13:30:53.693Z,234555.68,0xszmjDz0U,incremental,jednostavno-test,679df971131ae225e46b4282,participant,hcpib7hgm6nnouht,,1,click @1,Kako u posljednje vrijeme moja mala sestra ne ponaša se?,U posljednje vrijeme moja mala sestra se ne ponaša kao prije.,neg,,,23,ad_mode,ad_mode + ad_measure,interrogative pronouns
,Timer frame,html.Frame,2_16_1,,,,,,,2612.5599999999977,231934,231922.38,231937.44,234550,234552,2025-02-02T13:30:53.696Z,234555.68,0xszmjDz0U,incremental,jednostavno-test,679df971131ae225e46b4282,participant,hcpib7hgm6nnouht,,,,Kako u posljednje vrijeme moja mala sestra ne ponaša se?,U posljednje vrijeme moja mala sestra se ne ponaša kao prije.,neg,,,23,ad_mode,ad_mode + ad_measure,interrogative pronouns
,inter-stimulus,canvas.Screen,2_16_2,,,,,,response,1043.320000000007,234553,234540.12,234555.68,235599,235603,2025-02-02T13:30:54.748Z,235613.28,0xszmjDz0U,incremental,jednostavno-test,679df971131ae225e46b4282,participant,hcpib7hgm6nnouht,,,mousedown,Kako u posljednje vrijeme moja mala sestra ne ponaša se?,U posljednje vrijeme moja mala sestra se ne ponaša kao prije.,neg,,,23,ad_mode,ad_mode + ad_measure,interrogative pronouns
,Sequence,flow.Sequence,2_16,,,,,,completion,6734.579999999987,228859,228849.58,228864.42,235599,235606,2025-02-02T13:30:54.750Z,235613.28,0xszmjDz0U,incremental,jednostavno-test,679df971131ae225e46b4282,participant,hcpib7hgm6nnouht,,,,Kako u posljednje vrijeme moja mala sestra ne ponaša se?,U posljednje vrijeme moja mala sestra se ne ponaša kao prije.,neg,,,23,ad_mode,ad_mode + ad_measure,interrogative pronouns
,context,canvas.Screen,2_17_0_0,,,,,,response,5773.720000000001,235608,235598.12,235613.28,241387,241390,2025-02-02T13:31:00.534Z,241395.88,0xszmjDz0U,incremental,jednostavno-test,679df971131ae225e46b4282,participant,hcpib7hgm6nnouht,,,click,"Što, zanima ih, tko će kupiti za vjenčani dar?",Zanima ih tko će kupiti posuđe za vjenčani dar.,iq,0,0,1,ob,sub + ob,interrogative pronouns
,Timer frame,html.Frame,2_17_0,,,,,,,5777.720000000001,235607,235598.12,235613.28,241391,241392,2025-02-02T13:31:00.536Z,241395.88,0xszmjDz0U,incremental,jednostavno-test,679df971131ae225e46b4282,participant,hcpib7hgm6nnouht,,,,"Što, zanima ih, tko će kupiti za vjenčani dar?",Zanima ih tko će kupiti posuđe za vjenčani dar.,iq,0,0,1,ob,sub + ob,interrogative pronouns
,stimulus,canvas.Screen,2_17_1_0,,,,,,response,6143.119999999995,241394,241383.44,241395.88,247539,247545,2025-02-02T13:31:06.688Z,247551.1,0xszmjDz0U,incremental,jednostavno-test,679df971131ae225e46b4282,participant,hcpib7hgm6nnouht,,4,click @4,"Što, zanima ih, tko će kupiti za vjenčani dar?",Zanima ih tko će kupiti posuđe za vjenčani dar.,iq,0,0,1,ob,sub + ob,interrogative pronouns
,Timer frame,html.Frame,2_17_1,,,,,,,6149.119999999995,241393,241383.44,241395.88,247545,247546,2025-02-02T13:31:06.690Z,247551.1,0xszmjDz0U,incremental,jednostavno-test,679df971131ae225e46b4282,participant,hcpib7hgm6nnouht,,,,"Što, zanima ih, tko će kupiti za vjenčani dar?",Zanima ih tko će kupiti posuđe za vjenčani dar.,iq,0,0,1,ob,sub + ob,interrogative pronouns
,inter-stimulus,canvas.Screen,2_17_2,,,,,,response,937.8999999999942,247547,247536.54,247551.1,248489,248494,2025-02-02T13:31:07.638Z,248501.14,0xszmjDz0U,incremental,jednostavno-test,679df971131ae225e46b4282,participant,hcpib7hgm6nnouht,,,mousedown,"Što, zanima ih, tko će kupiti za vjenčani dar?",Zanima ih tko će kupiti posuđe za vjenčani dar.,iq,0,0,1,ob,sub + ob,interrogative pronouns
,Sequence,flow.Sequence,2_17,,,,,,completion,12875.720000000001,235606,235598.12,235613.28,248489,248497,2025-02-02T13:31:07.641Z,248501.14,0xszmjDz0U,incremental,jednostavno-test,679df971131ae225e46b4282,participant,hcpib7hgm6nnouht,,,,"Što, zanima ih, tko će kupiti za vjenčani dar?",Zanima ih tko će kupiti posuđe za vjenčani dar.,iq,0,0,1,ob,sub + ob,interrogative pronouns
,context,canvas.Screen,2_18_0_0,,,,,,response,2308.859999999986,248500,248488.68,248501.14,250810,250815,2025-02-02T13:31:09.958Z,250822.14,0xszmjDz0U,incremental,jednostavno-test,679df971131ae225e46b4282,participant,hcpib7hgm6nnouht,,,click,Kakvog koga primijetila sam otkud se vraćajući na krovu čega?,Vraćajući se iz apoteke primijetila sam malog mačića na krovu auta.,nf,,,52,filler,filler,filler
,Timer frame,html.Frame,2_18_0,,,,,,,2314.859999999986,248498,248488.68,248501.14,250816,250817,2025-02-02T13:31:09.961Z,250822.14,0xszmjDz0U,incremental,jednostavno-test,679df971131ae225e46b4282,participant,hcpib7hgm6nnouht,,,,Kakvog koga primijetila sam otkud se vraćajući na krovu čega?,Vraćajući se iz apoteke primijetila sam malog mačića na krovu auta.,nf,,,52,filler,filler,filler
,stimulus,canvas.Screen,2_18_1_0,,,,,,response,2788.859999999986,250819,250805.94,250822.14,253611,253615,2025-02-02T13:31:12.759Z,253623.38,0xszmjDz0U,incremental,jednostavno-test,679df971131ae225e46b4282,participant,hcpib7hgm6nnouht,,1,click @1,Kakvog koga primijetila sam otkud se vraćajući na krovu čega?,Vraćajući se iz apoteke primijetila sam malog mačića na krovu auta.,nf,,,52,filler,filler,filler
,Timer frame,html.Frame,2_18_1,,,,,,,2793.859999999986,250818,250805.94,250822.14,253616,253617,2025-02-02T13:31:12.762Z,253623.38,0xszmjDz0U,incremental,jednostavno-test,679df971131ae225e46b4282,participant,hcpib7hgm6nnouht,,,,Kakvog koga primijetila sam otkud se vraćajući na krovu čega?,Vraćajući se iz apoteke primijetila sam malog mačića na krovu auta.,nf,,,52,filler,filler,filler
,inter-stimulus,canvas.Screen,2_18_2,,,,,,response,938.6199999999953,253618,253607.48,253623.38,254562,254587,2025-02-02T13:31:13.730Z,254597.76,0xszmjDz0U,incremental,jednostavno-test,679df971131ae225e46b4282,participant,hcpib7hgm6nnouht,,,mousedown,Kakvog koga primijetila sam otkud se vraćajući na krovu čega?,Vraćajući se iz apoteke primijetila sam malog mačića na krovu auta.,nf,,,52,filler,filler,filler
,Sequence,flow.Sequence,2_18,,,,,,completion,6060.859999999986,248498,248488.68,248501.14,254562,254591,2025-02-02T13:31:13.735Z,254597.76,0xszmjDz0U,incremental,jednostavno-test,679df971131ae225e46b4282,participant,hcpib7hgm6nnouht,,,,Kakvog koga primijetila sam otkud se vraćajući na krovu čega?,Vraćajući se iz apoteke primijetila sam malog mačića na krovu auta.,nf,,,52,filler,filler,filler
,context,canvas.Screen,2_19_0_0,,,,,,response,2585.2399999999907,254596,254561.5,254597.76,257183,257188,2025-02-02T13:31:16.332Z,257190.54,0xszmjDz0U,incremental,jednostavno-test,679df971131ae225e46b4282,participant,hcpib7hgm6nnouht,,,click,Kako je Ivan požalio što se ponašao na zabavi?,Ivan je požalio što se ponašao drsko na zabavi.,fac,0,0,32,ad_mode,ob_dir + ad_mode + ad_measure,interrogative pronouns
,Timer frame,html.Frame,2_19_0,,,,,,,2591.2399999999907,254592,254561.5,254597.76,257189,257190,2025-02-02T13:31:16.334Z,257190.54,0xszmjDz0U,incremental,jednostavno-test,679df971131ae225e46b4282,participant,hcpib7hgm6nnouht,,,,Kako je Ivan požalio što se ponašao na zabavi?,Ivan je požalio što se ponašao drsko na zabavi.,fac,0,0,32,ad_mode,ob_dir + ad_mode + ad_measure,interrogative pronouns
,stimulus,canvas.Screen,2_19_1_0,,,,,,response,3771.459999999992,257193,257180.14,257190.54,260962,260966,2025-02-02T13:31:20.110Z,260966.62,0xszmjDz0U,incremental,jednostavno-test,679df971131ae225e46b4282,participant,hcpib7hgm6nnouht,,1,click @1,Kako je Ivan požalio što se ponašao na zabavi?,Ivan je požalio što se ponašao drsko na zabavi.,fac,0,0,32,ad_mode,ob_dir + ad_mode + ad_measure,interrogative pronouns
,Timer frame,html.Frame,2_19_1,,,,,,,3776.459999999992,257191,257180.14,257190.54,260967,260969,2025-02-02T13:31:20.112Z,260966.62,0xszmjDz0U,incremental,jednostavno-test,679df971131ae225e46b4282,participant,hcpib7hgm6nnouht,,,,Kako je Ivan požalio što se ponašao na zabavi?,Ivan je požalio što se ponašao drsko na zabavi.,fac,0,0,32,ad_mode,ob_dir + ad_mode + ad_measure,interrogative pronouns
,inter-stimulus,canvas.Screen,2_19_2,,,,,,response,1299.3800000000047,260970,260958.1,260966.62,262266,262271,2025-02-02T13:31:21.416Z,262287.84,0xszmjDz0U,incremental,jednostavno-test,679df971131ae225e46b4282,participant,hcpib7hgm6nnouht,,,mousedown,Kako je Ivan požalio što se ponašao na zabavi?,Ivan je požalio što se ponašao drsko na zabavi.,fac,0,0,32,ad_mode,ob_dir + ad_mode + ad_measure,interrogative pronouns
,Sequence,flow.Sequence,2_19,,,,,,completion,7668.239999999991,254592,254561.5,254597.76,262266,262274,2025-02-02T13:31:21.419Z,262287.84,0xszmjDz0U,incremental,jednostavno-test,679df971131ae225e46b4282,participant,hcpib7hgm6nnouht,,,,Kako je Ivan požalio što se ponašao na zabavi?,Ivan je požalio što se ponašao drsko na zabavi.,fac,0,0,32,ad_mode,ob_dir + ad_mode + ad_measure,interrogative pronouns
,context,canvas.Screen,2_20_0_0,,,,,,response,3285.1599999999744,262278,262265.88,262287.84,265573,265575,2025-02-02T13:31:24.719Z,265583.32,0xszmjDz0U,incremental,jednostavno-test,679df971131ae225e46b4282,participant,hcpib7hgm6nnouht,,,click,Gdje Tvrtko neće moći provesti vikend s obitelji?,Tvrtko neće moći provesti vikend s obitelji na Bahamima.,neg,,,22,ad_place,ad_time + ad_place,interrogative pronouns
,Timer frame,html.Frame,2_20_0,,,,,,,3287.1599999999744,262277,262265.88,262287.84,265575,265576,2025-02-02T13:31:24.720Z,265583.32,0xszmjDz0U,incremental,jednostavno-test,679df971131ae225e46b4282,participant,hcpib7hgm6nnouht,,,,Gdje Tvrtko neće moći provesti vikend s obitelji?,Tvrtko neće moći provesti vikend s obitelji na Bahamima.,neg,,,22,ad_place,ad_time + ad_place,interrogative pronouns
,stimulus,canvas.Screen,2_20_1_0,,,,,,response,2502.679999999993,265578,265571.08,265583.32,268086,268093,2025-02-02T13:31:27.237Z,268094.44,0xszmjDz0U,incremental,jednostavno-test,679df971131ae225e46b4282,participant,hcpib7hgm6nnouht,,7,click @7,Gdje Tvrtko neće moći provesti vikend s obitelji?,Tvrtko neće moći provesti vikend s obitelji na Bahamima.,neg,,,22,ad_place,ad_time + ad_place,interrogative pronouns
,Timer frame,html.Frame,2_20_1,,,,,,,2510.679999999993,265577,265571.08,265583.32,268094,268095,2025-02-02T13:31:27.239Z,268094.44,0xszmjDz0U,incremental,jednostavno-test,679df971131ae225e46b4282,participant,hcpib7hgm6nnouht,,,,Gdje Tvrtko neće moći provesti vikend s obitelji?,Tvrtko neće moći provesti vikend s obitelji na Bahamima.,neg,,,22,ad_place,ad_time + ad_place,interrogative pronouns
,inter-stimulus,canvas.Screen,2_20_2,,,,,,response,906.5599999999977,268096,268083.22,268094.44,269001,269007,2025-02-02T13:31:28.150Z,269019.78,0xszmjDz0U,incremental,jednostavno-test,679df971131ae225e46b4282,participant,hcpib7hgm6nnouht,,,mousedown,Gdje Tvrtko neće moći provesti vikend s obitelji?,Tvrtko neće moći provesti vikend s obitelji na Bahamima.,neg,,,22,ad_place,ad_time + ad_place,interrogative pronouns
,Sequence,flow.Sequence,2_20,,,,,,completion,6713.159999999974,262276,262265.88,262287.84,269001,269011,2025-02-02T13:31:28.155Z,269019.78,0xszmjDz0U,incremental,jednostavno-test,679df971131ae225e46b4282,participant,hcpib7hgm6nnouht,,,,Gdje Tvrtko neće moći provesti vikend s obitelji?,Tvrtko neće moći provesti vikend s obitelji na Bahamima.,neg,,,22,ad_place,ad_time + ad_place,interrogative pronouns
,context,canvas.Screen,2_21_0_0,,,,,,response,3829.219999999972,269014,269001.22,269019.78,272849,272854,2025-02-02T13:31:31.998Z,272860.94,0xszmjDz0U,incremental,jednostavno-test,679df971131ae225e46b4282,participant,hcpib7hgm6nnouht,,,click,"Što, Klara misli, da je Petar kupio na tržnici?",Klara misli da je Petar kupio sat na tržnici.,fac,,,39,ob,ob + ad_mode,interrogative pronouns
,Timer frame,html.Frame,2_21_0,,,,,,,3834.219999999972,269013,269001.22,269019.78,272854,272855,2025-02-02T13:31:31.999Z,272860.94,0xszmjDz0U,incremental,jednostavno-test,679df971131ae225e46b4282,participant,hcpib7hgm6nnouht,,,,"Što, Klara misli, da je Petar kupio na tržnici?",Klara misli da je Petar kupio sat na tržnici.,fac,,,39,ob,ob + ad_mode,interrogative pronouns
,stimulus,canvas.Screen,2_21_1_0,,,,,,response,3629.0599999999977,272857,272845.88,272860.94,276490,276495,2025-02-02T13:31:35.639Z,276496.7,0xszmjDz0U,incremental,jednostavno-test,679df971131ae225e46b4282,participant,hcpib7hgm6nnouht,,7,click @7,"Što, Klara misli, da je Petar kupio na tržnici?",Klara misli da je Petar kupio sat na tržnici.,fac,,,39,ob,ob + ad_mode,interrogative pronouns
,Timer frame,html.Frame,2_21_1,,,,,,,3635.0599999999977,272856,272845.88,272860.94,276496,276497,2025-02-02T13:31:35.640Z,276496.7,0xszmjDz0U,incremental,jednostavno-test,679df971131ae225e46b4282,participant,hcpib7hgm6nnouht,,,,"Što, Klara misli, da je Petar kupio na tržnici?",Klara misli da je Petar kupio sat na tržnici.,fac,,,39,ob,ob + ad_mode,interrogative pronouns
,inter-stimulus,canvas.Screen,2_21_2,,,,,,response,864.2999999999884,276497,276486.12,276496.7,277361,277366,2025-02-02T13:31:36.510Z,277380.84,0xszmjDz0U,incremental,jednostavno-test,679df971131ae225e46b4282,participant,hcpib7hgm6nnouht,,,mousedown,"Što, Klara misli, da je Petar kupio na tržnici?",Klara misli da je Petar kupio sat na tržnici.,fac,,,39,ob,ob + ad_mode,interrogative pronouns
,Sequence,flow.Sequence,2_21,,,,,,completion,8341.219999999972,269013,269001.22,269019.78,277361,277368,2025-02-02T13:31:36.512Z,277380.84,0xszmjDz0U,incremental,jednostavno-test,679df971131ae225e46b4282,participant,hcpib7hgm6nnouht,,,,"Što, Klara misli, da je Petar kupio na tržnici?",Klara misli da je Petar kupio sat na tržnici.,fac,,,39,ob,ob + ad_mode,interrogative pronouns
,context,canvas.Screen,2_22_0_0,,,,,,response,2782.1599999999744,277370,277359.56,277380.84,280163,280166,2025-02-02T13:31:39.309Z,280172.9,0xszmjDz0U,incremental,jednostavno-test,679df971131ae225e46b4282,participant,hcpib7hgm6nnouht,,,click,Uvidjeli smo tu zgradu u kojoj smo pitlai tko radi.,Pitali smo tko radi u tom velikom uredu.,iq,,,13,ad,sub + ad,relative pronouns
,Timer frame,html.Frame,2_22_0,,,,,,,2785.1599999999744,277369,277359.56,277380.84,280166,280167,2025-02-02T13:31:39.310Z,280172.9,0xszmjDz0U,incremental,jednostavno-test,679df971131ae225e46b4282,participant,hcpib7hgm6nnouht,,,,Uvidjeli smo tu zgradu u kojoj smo pitlai tko radi.,Pitali smo tko radi u tom velikom uredu.,iq,,,13,ad,sub + ad,relative pronouns
,stimulus,canvas.Screen,2_22_1_0,,,,,,response,3881.0999999999767,280168,280157.26,280172.9,284054,284059,2025-02-02T13:31:43.202Z,284057,0xszmjDz0U,incremental,jednostavno-test,679df971131ae225e46b4282,participant,hcpib7hgm6nnouht,,1,click @1,Uvidjeli smo tu zgradu u kojoj smo pitlai tko radi.,Pitali smo tko radi u tom velikom uredu.,iq,,,13,ad,sub + ad,relative pronouns
,Timer frame,html.Frame,2_22_1,,,,,,,3886.0999999999767,280167,280157.26,280172.9,284059,284060,2025-02-02T13:31:43.204Z,284057,0xszmjDz0U,incremental,jednostavno-test,679df971131ae225e46b4282,participant,hcpib7hgm6nnouht,,,,Uvidjeli smo tu zgradu u kojoj smo pitlai tko radi.,Pitali smo tko radi u tom velikom uredu.,iq,,,13,ad,sub + ad,relative pronouns
,inter-stimulus,canvas.Screen,2_22_2,,,,,,response,977,284061,284050.02,284057,285034,285038,2025-02-02T13:31:44.182Z,285048.88,0xszmjDz0U,incremental,jednostavno-test,679df971131ae225e46b4282,participant,hcpib7hgm6nnouht,,,mousedown,Uvidjeli smo tu zgradu u kojoj smo pitlai tko radi.,Pitali smo tko radi u tom velikom uredu.,iq,,,13,ad,sub + ad,relative pronouns
,Sequence,flow.Sequence,2_22,,,,,,completion,7653.159999999974,277369,277359.56,277380.84,285034,285040,2025-02-02T13:31:44.183Z,285048.88,0xszmjDz0U,incremental,jednostavno-test,679df971131ae225e46b4282,participant,hcpib7hgm6nnouht,,,,Uvidjeli smo tu zgradu u kojoj smo pitlai tko radi.,Pitali smo tko radi u tom velikom uredu.,iq,,,13,ad,sub + ad,relative pronouns
,context,canvas.Screen,2_23_0_0,,,,,,response,5085.119999999995,285042,285032.56,285048.88,290134,290135,2025-02-02T13:31:49.280Z,290137.52,0xszmjDz0U,incremental,jednostavno-test,679df971131ae225e46b4282,participant,hcpib7hgm6nnouht,,,click,"Što, Perići znaju, da je Petar kupio na tržnici?",Perići znaju da je Petar kupio sat na tržnici.,fac,,,37,ob,ob + ad_mode,interrogative pronouns
,Timer frame,html.Frame,2_23_0,,,,,,,5086.119999999995,285041,285032.56,285048.88,290135,290135,2025-02-02T13:31:49.280Z,290137.52,0xszmjDz0U,incremental,jednostavno-test,679df971131ae225e46b4282,participant,hcpib7hgm6nnouht,,,,"Što, Perići znaju, da je Petar kupio na tržnici?",Perići znaju da je Petar kupio sat na tržnici.,fac,,,37,ob,ob + ad_mode,interrogative pronouns
,stimulus,canvas.Screen,2_23_1_0,,,,,,response,2711.4799999999814,290136,290133.86,290137.52,292849,292855,2025-02-02T13:31:51.998Z,292855.44,0xszmjDz0U,incremental,jednostavno-test,679df971131ae225e46b4282,participant,hcpib7hgm6nnouht,,7,click @7,"Što, Perići znaju, da je Petar kupio na tržnici?",Perići znaju da je Petar kupio sat na tržnici.,fac,,,37,ob,ob + ad_mode,interrogative pronouns
,Timer frame,html.Frame,2_23_1,,,,,,,2717.4799999999814,290135,290133.86,290137.52,292855,292856,2025-02-02T13:31:51.999Z,292855.44,0xszmjDz0U,incremental,jednostavno-test,679df971131ae225e46b4282,participant,hcpib7hgm6nnouht,,,,"Što, Perići znaju, da je Petar kupio na tržnici?",Perići znaju da je Petar kupio sat na tržnici.,fac,,,37,ob,ob + ad_mode,interrogative pronouns
,inter-stimulus,canvas.Screen,2_23_2,,,,,,response,957.5599999999977,292857,292845.3,292855.44,293813,293839,2025-02-02T13:31:52.982Z,293854.64,0xszmjDz0U,incremental,jednostavno-test,679df971131ae225e46b4282,participant,hcpib7hgm6nnouht,,,mousedown,"Što, Perići znaju, da je Petar kupio na tržnici?",Perići znaju da je Petar kupio sat na tržnici.,fac,,,37,ob,ob + ad_mode,interrogative pronouns
,Sequence,flow.Sequence,2_23,,,,,,completion,8764.119999999995,285041,285032.56,285048.88,293813,293842,2025-02-02T13:31:52.986Z,293854.64,0xszmjDz0U,incremental,jednostavno-test,679df971131ae225e46b4282,participant,hcpib7hgm6nnouht,,,,"Što, Perići znaju, da je Petar kupio na tržnici?",Perići znaju da je Petar kupio sat na tržnici.,fac,,,37,ob,ob + ad_mode,interrogative pronouns
,context,canvas.Screen,2_24_0_0,,,,,,response,3379.359999999986,293848,293812.22,293854.64,297234,297238,2025-02-02T13:31:56.382Z,297241.4,0xszmjDz0U,incremental,jednostavno-test,679df971131ae225e46b4282,participant,hcpib7hgm6nnouht,,,click,Ovo je arhipelag na kojem Tvrtko neće moći provesti vikend s obitelji.,Tvrtko neće moći provesti vikend s obitelji na Bahamima.,neg,0,0,28,ad_place,ad_time + ad_place,relative pronouns
,Timer frame,html.Frame,2_24_0,,,,,,,3384.359999999986,293846,293812.22,293854.64,297239,297240,2025-02-02T13:31:56.384Z,297241.4,0xszmjDz0U,incremental,jednostavno-test,679df971131ae225e46b4282,participant,hcpib7hgm6nnouht,,,,Ovo je arhipelag na kojem Tvrtko neće moći provesti vikend s obitelji.,Tvrtko neće moći provesti vikend s obitelji na Bahamima.,neg,0,0,28,ad_place,ad_time + ad_place,relative pronouns
,stimulus,canvas.Screen,2_24_1_0,,,,,,response,3739.5999999999767,297242,297229.94,297241.4,300981,300987,2025-02-02T13:32:00.131Z,300991.42,0xszmjDz0U,incremental,jednostavno-test,679df971131ae225e46b4282,participant,hcpib7hgm6nnouht,,4,click @4,Ovo je arhipelag na kojem Tvrtko neće moći provesti vikend s obitelji.,Tvrtko neće moći provesti vikend s obitelji na Bahamima.,neg,0,0,28,ad_place,ad_time + ad_place,relative pronouns
,Timer frame,html.Frame,2_24_1,,,,,,,3746.5999999999767,297241,297229.94,297241.4,300988,300989,2025-02-02T13:32:00.133Z,300991.42,0xszmjDz0U,incremental,jednostavno-test,679df971131ae225e46b4282,participant,hcpib7hgm6nnouht,,,,Ovo je arhipelag na kojem Tvrtko neće moći provesti vikend s obitelji.,Tvrtko neće moći provesti vikend s obitelji na Bahamima.,neg,0,0,28,ad_place,ad_time + ad_place,relative pronouns
,inter-stimulus,canvas.Screen,2_24_2,,,,,,response,931.5800000000163,300990,300978.3,300991.42,301923,301926,2025-02-02T13:32:01.071Z,301932.92,0xszmjDz0U,incremental,jednostavno-test,679df971131ae225e46b4282,participant,hcpib7hgm6nnouht,,,mousedown,Ovo je arhipelag na kojem Tvrtko neće moći provesti vikend s obitelji.,Tvrtko neće moći provesti vikend s obitelji na Bahamima.,neg,0,0,28,ad_place,ad_time + ad_place,relative pronouns
,Sequence,flow.Sequence,2_24,,,,,,completion,8068.359999999986,293844,293812.22,293854.64,301923,301929,2025-02-02T13:32:01.073Z,301932.92,0xszmjDz0U,incremental,jednostavno-test,679df971131ae225e46b4282,participant,hcpib7hgm6nnouht,,,,Ovo je arhipelag na kojem Tvrtko neće moći provesti vikend s obitelji.,Tvrtko neće moći provesti vikend s obitelji na Bahamima.,neg,0,0,28,ad_place,ad_time + ad_place,relative pronouns
,context,canvas.Screen,2_25_0_0,,,,,,response,1673.0800000000163,301933,301921.86,301932.92,303606,303609,2025-02-02T13:32:02.753Z,303626.84,0xszmjDz0U,incremental,jednostavno-test,679df971131ae225e46b4282,participant,hcpib7hgm6nnouht,,,click,Što Danijela ne voli gledati?,Danijela ne voli gledati nogomet.,neg,,,19,ob,ob + ob,interrogative pronouns
,Timer frame,html.Frame,2_25_0,,,,,,,1676.0800000000163,301931,301921.86,301932.92,303609,303610,2025-02-02T13:32:02.754Z,303626.84,0xszmjDz0U,incremental,jednostavno-test,679df971131ae225e46b4282,participant,hcpib7hgm6nnouht,,,,Što Danijela ne voli gledati?,Danijela ne voli gledati nogomet.,neg,,,19,ob,ob + ob,interrogative pronouns
,stimulus,canvas.Screen,2_25_1_0,,,,,,response,2503.1599999999744,303612,303604.36,303626.84,306130,306140,2025-02-02T13:32:05.283Z,306146.74,0xszmjDz0U,incremental,jednostavno-test,679df971131ae225e46b4282,participant,hcpib7hgm6nnouht,,7,click @7,Što Danijela ne voli gledati?,Danijela ne voli gledati nogomet.,neg,,,19,ob,ob + ob,interrogative pronouns
,Timer frame,html.Frame,2_25_1,,,,,,,2514.1599999999744,303611,303604.36,303626.84,306141,306141,2025-02-02T13:32:05.285Z,306146.74,0xszmjDz0U,incremental,jednostavno-test,679df971131ae225e46b4282,participant,hcpib7hgm6nnouht,,,,Što Danijela ne voli gledati?,Danijela ne voli gledati nogomet.,neg,,,19,ob,ob + ob,interrogative pronouns
,inter-stimulus,canvas.Screen,2_25_2,,,,,,response,1031.2600000000093,306142,306128.16,306146.74,307178,307183,2025-02-02T13:32:06.328Z,307204.36,0xszmjDz0U,incremental,jednostavno-test,679df971131ae225e46b4282,participant,hcpib7hgm6nnouht,,,mousedown,Što Danijela ne voli gledati?,Danijela ne voli gledati nogomet.,neg,,,19,ob,ob + ob,interrogative pronouns
,Sequence,flow.Sequence,2_25,,,,,,completion,5245.080000000016,301931,301921.86,301932.92,307178,307189,2025-02-02T13:32:06.332Z,307204.36,0xszmjDz0U,incremental,jednostavno-test,679df971131ae225e46b4282,participant,hcpib7hgm6nnouht,,,,Što Danijela ne voli gledati?,Danijela ne voli gledati nogomet.,neg,,,19,ob,ob + ob,interrogative pronouns
,context,canvas.Screen,2_26_0_0,,,,,,response,2154.640000000014,307193,307177.64,307204.36,309359,309362,2025-02-02T13:32:08.506Z,309369.18,0xszmjDz0U,incremental,jednostavno-test,679df971131ae225e46b4282,participant,hcpib7hgm6nnouht,,,click,Kada Slavko ide u SAD na work and travel program?,Na ljeto Slavko ide u USA na work and travel program.,iq,0,0,9,ad,ad + ad,interrogative pronouns
,Timer frame,html.Frame,2_26_0,,,,,,,2157.640000000014,307192,307177.64,307204.36,309362,309363,2025-02-02T13:32:08.507Z,309369.18,0xszmjDz0U,incremental,jednostavno-test,679df971131ae225e46b4282,participant,hcpib7hgm6nnouht,,,,Kada Slavko ide u SAD na work and travel program?,Na ljeto Slavko ide u USA na work and travel program.,iq,0,0,9,ad,ad + ad,interrogative pronouns
,stimulus,canvas.Screen,2_26_1_0,,,,,,response,2713.820000000007,309366,309355.88,309369.18,312083,312088,2025-02-02T13:32:11.232Z,312095.36,0xszmjDz0U,incremental,jednostavno-test,679df971131ae225e46b4282,participant,hcpib7hgm6nnouht,,7,click @7,Kada Slavko ide u SAD na work and travel program?,Na ljeto Slavko ide u USA na work and travel program.,iq,0,0,9,ad,ad + ad,interrogative pronouns
,Timer frame,html.Frame,2_26_1,,,,,,,2719.820000000007,309364,309355.88,309369.18,312089,312090,2025-02-02T13:32:11.233Z,312095.36,0xszmjDz0U,incremental,jednostavno-test,679df971131ae225e46b4282,participant,hcpib7hgm6nnouht,,,,Kada Slavko ide u SAD na work and travel program?,Na ljeto Slavko ide u USA na work and travel program.,iq,0,0,9,ad,ad + ad,interrogative pronouns
,inter-stimulus,canvas.Screen,2_26_2,,,,,,response,1035.640000000014,312090,312080.08,312095.36,313131,313135,2025-02-02T13:32:12.278Z,313152.56,0xszmjDz0U,incremental,jednostavno-test,679df971131ae225e46b4282,participant,hcpib7hgm6nnouht,,,mousedown,Kada Slavko ide u SAD na work and travel program?,Na ljeto Slavko ide u USA na work and travel program.,iq,0,0,9,ad,ad + ad,interrogative pronouns
,Sequence,flow.Sequence,2_26,,,,,,completion,5926.640000000014,307191,307177.64,307204.36,313131,313136,2025-02-02T13:32:12.279Z,313152.56,0xszmjDz0U,incremental,jednostavno-test,679df971131ae225e46b4282,participant,hcpib7hgm6nnouht,,,,Kada Slavko ide u SAD na work and travel program?,Na ljeto Slavko ide u USA na work and travel program.,iq,0,0,9,ad,ad + ad,interrogative pronouns
,context,canvas.Screen,2_27_0_0,,,,,,response,3810.4400000000023,313138,313130.64,313152.56,316963,316969,2025-02-02T13:32:16.112Z,316987.42,0xszmjDz0U,incremental,jednostavno-test,679df971131ae225e46b4282,participant,hcpib7hgm6nnouht,,,click,Tražim ove slušalice koje sam pitao Antona gdje je ostavio.,Pitao sam Antona gdje je ostavio moje slušalice.,iq,0,0,16,ob,ob + ad,relative pronouns
,Timer frame,html.Frame,2_27_0,,,,,,,3816.4400000000023,313137,313130.64,313152.56,316969,316970,2025-02-02T13:32:16.114Z,316987.42,0xszmjDz0U,incremental,jednostavno-test,679df971131ae225e46b4282,participant,hcpib7hgm6nnouht,,,,Tražim ove slušalice koje sam pitao Antona gdje je ostavio.,Pitao sam Antona gdje je ostavio moje slušalice.,iq,0,0,16,ob,ob + ad,relative pronouns
,stimulus,canvas.Screen,2_27_1_0,,,,,,response,3427.5800000000163,316976,316958.08,316987.42,320415,320422,2025-02-02T13:32:19.565Z,320423.96,0xszmjDz0U,incremental,jednostavno-test,679df971131ae225e46b4282,participant,hcpib7hgm6nnouht,,4,click @4,Tražim ove slušalice koje sam pitao Antona gdje je ostavio.,Pitao sam Antona gdje je ostavio moje slušalice.,iq,0,0,16,ob,ob + ad,relative pronouns
,Timer frame,html.Frame,2_27_1,,,,,,,3436.5800000000163,316971,316958.08,316987.42,320424,320425,2025-02-02T13:32:19.568Z,320423.96,0xszmjDz0U,incremental,jednostavno-test,679df971131ae225e46b4282,participant,hcpib7hgm6nnouht,,,,Tražim ove slušalice koje sam pitao Antona gdje je ostavio.,Pitao sam Antona gdje je ostavio moje slušalice.,iq,0,0,16,ob,ob + ad,relative pronouns
,inter-stimulus,canvas.Screen,2_27_2,,,,,,response,964.039999999979,320426,320412,320423.96,321388,321389,2025-02-02T13:32:20.534Z,321398.88,0xszmjDz0U,incremental,jednostavno-test,679df971131ae225e46b4282,participant,hcpib7hgm6nnouht,,,mousedown,Tražim ove slušalice koje sam pitao Antona gdje je ostavio.,Pitao sam Antona gdje je ostavio moje slušalice.,iq,0,0,16,ob,ob + ad,relative pronouns
,Sequence,flow.Sequence,2_27,,,,,,completion,8235.440000000002,313137,313130.64,313152.56,321388,321390,2025-02-02T13:32:20.534Z,321398.88,0xszmjDz0U,incremental,jednostavno-test,679df971131ae225e46b4282,participant,hcpib7hgm6nnouht,,,,Tražim ove slušalice koje sam pitao Antona gdje je ostavio.,Pitao sam Antona gdje je ostavio moje slušalice.,iq,0,0,16,ob,ob + ad,relative pronouns
,context,canvas.Screen,2_28_0_0,,,,,,response,2210.1199999999953,321396,321387.04,321398.88,323609,323613,2025-02-02T13:32:22.757Z,323613.42,0xszmjDz0U,incremental,jednostavno-test,679df971131ae225e46b4282,participant,hcpib7hgm6nnouht,,,click,Gdje je djeca?,Moj mlađi brat i sestra su bili u dvorištu.,nf,,,55,filler,filler,filler
,Timer frame,html.Frame,2_28_0,,,,,,,2214.1199999999953,321394,321387.04,321398.88,323613,323615,2025-02-02T13:32:22.758Z,323613.42,0xszmjDz0U,incremental,jednostavno-test,679df971131ae225e46b4282,participant,hcpib7hgm6nnouht,,,,Gdje je djeca?,Moj mlađi brat i sestra su bili u dvorištu.,nf,,,55,filler,filler,filler
,stimulus,canvas.Screen,2_28_1_0,,,,,,response,4293.580000000016,323616,323604.82,323613.42,327907,327916,2025-02-02T13:32:27.061Z,327935.3,0xszmjDz0U,incremental,jednostavno-test,679df971131ae225e46b4282,participant,hcpib7hgm6nnouht,,3,click @3,Gdje je djeca?,Moj mlađi brat i sestra su bili u dvorištu.,nf,,,55,filler,filler,filler
,Timer frame,html.Frame,2_28_1,,,,,,,4305.580000000016,323615,323604.82,323613.42,327919,327919,2025-02-02T13:32:27.062Z,327935.3,0xszmjDz0U,incremental,jednostavno-test,679df971131ae225e46b4282,participant,hcpib7hgm6nnouht,,,,Gdje je djeca?,Moj mlađi brat i sestra su bili u dvorištu.,nf,,,55,filler,filler,filler
,inter-stimulus,canvas.Screen,2_28_2,,,,,,response,9389.700000000012,327920,327897.42,327935.3,337325,337348,2025-02-02T13:32:36.491Z,337385.32,0xszmjDz0U,incremental,jednostavno-test,679df971131ae225e46b4282,participant,hcpib7hgm6nnouht,,,mousedown,Gdje je djeca?,Moj mlađi brat i sestra su bili u dvorištu.,nf,,,55,filler,filler,filler
,Sequence,flow.Sequence,2_28,,,,,,completion,15926.119999999995,321391,321387.04,321398.88,337325,337351,2025-02-02T13:32:36.494Z,337385.32,0xszmjDz0U,incremental,jednostavno-test,679df971131ae225e46b4282,participant,hcpib7hgm6nnouht,,,,Gdje je djeca?,Moj mlađi brat i sestra su bili u dvorištu.,nf,,,55,filler,filler,filler
,context,canvas.Screen,2_29_0_0,,,,,,response,4970.679999999993,337359,337322.84,337385.32,342356,342369,2025-02-02T13:32:41.514Z,342414.52,0xszmjDz0U,incremental,jednostavno-test,679df971131ae225e46b4282,participant,hcpib7hgm6nnouht,,,click,"Tko, tvoja prijateljica pitala je, gdje radi?",Tvoja prijateljica pitala je gdje radi moj brat.,iq,0,0,2,sub,sub + ob,interrogative pronouns
,Timer frame,html.Frame,2_29_0,,,,,,,4987.679999999993,337353,337322.84,337385.32,342373,342374,2025-02-02T13:32:41.518Z,342414.52,0xszmjDz0U,incremental,jednostavno-test,679df971131ae225e46b4282,participant,hcpib7hgm6nnouht,,,,"Tko, tvoja prijateljica pitala je, gdje radi?",Tvoja prijateljica pitala je gdje radi moj brat.,iq,0,0,2,sub,sub + ob,interrogative pronouns
,stimulus,canvas.Screen,2_29_1_0,,,,,,response,5105.479999999981,342377,342333,342414.52,347520,347562,2025-02-02T13:32:46.706Z,347593.12,0xszmjDz0U,incremental,jednostavno-test,679df971131ae225e46b4282,participant,hcpib7hgm6nnouht,,5,click @5,"Tko, tvoja prijateljica pitala je, gdje radi?",Tvoja prijateljica pitala je gdje radi moj brat.,iq,0,0,2,sub,sub + ob,interrogative pronouns
,Timer frame,html.Frame,2_29_1,,,,,,,5151.479999999981,342375,342333,342414.52,347566,347567,2025-02-02T13:32:46.710Z,347593.12,0xszmjDz0U,incremental,jednostavno-test,679df971131ae225e46b4282,participant,hcpib7hgm6nnouht,,,,"Tko, tvoja prijateljica pitala je, gdje radi?",Tvoja prijateljica pitala je gdje radi moj brat.,iq,0,0,2,sub,sub + ob,interrogative pronouns
,inter-stimulus,canvas.Screen,2_29_2,,,,,,response,1246.8800000000047,347568,347478.8,347593.12,348840,348846,2025-02-02T13:32:47.990Z,348865.3,0xszmjDz0U,incremental,jednostavno-test,679df971131ae225e46b4282,participant,hcpib7hgm6nnouht,,,mousedown,"Tko, tvoja prijateljica pitala je, gdje radi?",Tvoja prijateljica pitala je gdje radi moj brat.,iq,0,0,2,sub,sub + ob,interrogative pronouns
,Sequence,flow.Sequence,2_29,,,,,,completion,11454.679999999993,337352,337322.84,337385.32,348840,348849,2025-02-02T13:32:47.993Z,348865.3,0xszmjDz0U,incremental,jednostavno-test,679df971131ae225e46b4282,participant,hcpib7hgm6nnouht,,,,"Tko, tvoja prijateljica pitala je, gdje radi?",Tvoja prijateljica pitala je gdje radi moj brat.,iq,0,0,2,sub,sub + ob,interrogative pronouns
,context,canvas.Screen,2_30_0_0,,,,,,response,8942.700000000012,348852,348839.34,348865.3,357808,357844,2025-02-02T13:32:56.988Z,359579.72,0xszmjDz0U,incremental,jednostavno-test,679df971131ae225e46b4282,participant,hcpib7hgm6nnouht,,,click,"Kako, Klara milsi, da se Petar tog dana vozio kući?",Klara misli da se Petar tog dana vrlo brzo vozio kući.,fac,,,40,ad_mode,ob + ad_mode,interrogative pronouns
,Timer frame,html.Frame,2_30_0,,,,,,,8980.700000000012,348850,348839.34,348865.3,357846,357850,2025-02-02T13:32:56.994Z,359579.72,0xszmjDz0U,incremental,jednostavno-test,679df971131ae225e46b4282,participant,hcpib7hgm6nnouht,,,,"Kako, Klara milsi, da se Petar tog dana vozio kući?",Klara misli da se Petar tog dana vrlo brzo vozio kući.,fac,,,40,ad_mode,ob + ad_mode,interrogative pronouns
,stimulus,canvas.Screen,2_30_1_0,,,,,,response,4615.280000000028,357855,359563.32,359579.72,364195,364201,2025-02-02T13:33:03.344Z,364205.62,0xszmjDz0U,incremental,jednostavno-test,679df971131ae225e46b4282,participant,hcpib7hgm6nnouht,,7,click @7,"Kako, Klara milsi, da se Petar tog dana vozio kući?",Klara misli da se Petar tog dana vrlo brzo vozio kući.,fac,,,40,ad_mode,ob + ad_mode,interrogative pronouns
,Timer frame,html.Frame,2_30_1,,,,,,,4621.280000000028,357851,359563.32,359579.72,364201,364202,2025-02-02T13:33:03.345Z,364205.62,0xszmjDz0U,incremental,jednostavno-test,679df971131ae225e46b4282,participant,hcpib7hgm6nnouht,,,,"Kako, Klara milsi, da se Petar tog dana vozio kući?",Klara misli da se Petar tog dana vrlo brzo vozio kući.,fac,,,40,ad_mode,ob + ad_mode,interrogative pronouns
,inter-stimulus,canvas.Screen,2_30_2,,,,,,response,1341.3800000000047,364202,364193.46,364205.62,365547,365568,2025-02-02T13:33:04.711Z,365577.22,0xszmjDz0U,incremental,jednostavno-test,679df971131ae225e46b4282,participant,hcpib7hgm6nnouht,,,mousedown,"Kako, Klara milsi, da se Petar tog dana vozio kući?",Klara misli da se Petar tog dana vrlo brzo vozio kući.,fac,,,40,ad_mode,ob + ad_mode,interrogative pronouns
,Sequence,flow.Sequence,2_30,,,,,,completion,16681.70000000001,348850,348839.34,348865.3,365547,365571,2025-02-02T13:33:04.715Z,365577.22,0xszmjDz0U,incremental,jednostavno-test,679df971131ae225e46b4282,participant,hcpib7hgm6nnouht,,,,"Kako, Klara milsi, da se Petar tog dana vozio kući?",Klara misli da se Petar tog dana vrlo brzo vozio kući.,fac,,,40,ad_mode,ob + ad_mode,interrogative pronouns
,context,canvas.Screen,2_31_0_0,,,,,,response,2587.780000000028,365577,365545.78,365577.22,368165,368169,2025-02-02T13:33:07.313Z,368179.04,0xszmjDz0U,incremental,jednostavno-test,679df971131ae225e46b4282,participant,hcpib7hgm6nnouht,,,click,"Tko, zanima ih, što će kupiti za vjenčani dar?",Zanima ih što će Matej kupiti za vjenčani dar.,iq,0,0,0,sub,sub + ob,interrogative pronouns
,Timer frame,html.Frame,2_31_0,,,,,,,2592.780000000028,365575,365545.78,365577.22,368170,368171,2025-02-02T13:33:07.315Z,368179.04,0xszmjDz0U,incremental,jednostavno-test,679df971131ae225e46b4282,participant,hcpib7hgm6nnouht,,,,"Tko, zanima ih, što će kupiti za vjenčani dar?",Zanima ih što će Matej kupiti za vjenčani dar.,iq,0,0,0,sub,sub + ob,interrogative pronouns
,stimulus,canvas.Screen,2_31_1_0,,,,,,response,7994.960000000021,368174,368161.56,368179.04,376174,376193,2025-02-02T13:33:15.337Z,376207.26,0xszmjDz0U,incremental,jednostavno-test,679df971131ae225e46b4282,participant,hcpib7hgm6nnouht,,7,click @7,"Tko, zanima ih, što će kupiti za vjenčani dar?",Zanima ih što će Matej kupiti za vjenčani dar.,iq,0,0,0,sub,sub + ob,interrogative pronouns
,Timer frame,html.Frame,2_31_1,,,,,,,8015.960000000021,368173,368161.56,368179.04,376195,376197,2025-02-02T13:33:15.341Z,376207.26,0xszmjDz0U,incremental,jednostavno-test,679df971131ae225e46b4282,participant,hcpib7hgm6nnouht,,,,"Tko, zanima ih, što će kupiti za vjenčani dar?",Zanima ih što će Matej kupiti za vjenčani dar.,iq,0,0,0,sub,sub + ob,interrogative pronouns
,inter-stimulus,canvas.Screen,2_31_2,,,,,,response,1044.7399999999907,376199,376198.64,376207.26,377252,377261,2025-02-02T13:33:16.404Z,377272.26,0xszmjDz0U,incremental,jednostavno-test,679df971131ae225e46b4282,participant,hcpib7hgm6nnouht,,,mousedown,"Tko, zanima ih, što će kupiti za vjenčani dar?",Zanima ih što će Matej kupiti za vjenčani dar.,iq,0,0,0,sub,sub + ob,interrogative pronouns
,Sequence,flow.Sequence,2_31,,,,,,completion,11674.780000000028,365575,365545.78,365577.22,377252,377263,2025-02-02T13:33:16.407Z,377272.26,0xszmjDz0U,incremental,jednostavno-test,679df971131ae225e46b4282,participant,hcpib7hgm6nnouht,,,,"Tko, zanima ih, što će kupiti za vjenčani dar?",Zanima ih što će Matej kupiti za vjenčani dar.,iq,0,0,0,sub,sub + ob,interrogative pronouns
,context,canvas.Screen,2_32_0_0,,,,,,response,6366.739999999991,377267,377251.66,377272.26,383639,383645,2025-02-02T13:33:22.789Z,383657.56,0xszmjDz0U,incremental,jednostavno-test,679df971131ae225e46b4282,participant,hcpib7hgm6nnouht,,,click,Danas se moja mala sestra ponaša na taj način na koji se ne ponašala prije,U posljednje vrijeme moja mala sestra ne ponaša se kao prije.,neg,,0,29,ad_mode,ad_mode + ad_measure,relative pronouns
,Timer frame,html.Frame,2_32_0,,,,,,,6373.739999999991,377265,377251.66,377272.26,383646,383647,2025-02-02T13:33:22.791Z,383657.56,0xszmjDz0U,incremental,jednostavno-test,679df971131ae225e46b4282,participant,hcpib7hgm6nnouht,,,,Danas se moja mala sestra ponaša na taj način na koji se ne ponašala prije,U posljednje vrijeme moja mala sestra ne ponaša se kao prije.,neg,,0,29,ad_mode,ad_mode + ad_measure,relative pronouns
,stimulus,canvas.Screen,2_32_1_0,,,,,,response,7932.440000000002,383649,383635.58,383657.56,391590,391597,2025-02-02T13:33:30.741Z,391607.14,0xszmjDz0U,incremental,jednostavno-test,679df971131ae225e46b4282,participant,hcpib7hgm6nnouht,,3,click @3,Danas se moja mala sestra ponaša na taj način na koji se ne ponašala prije,U posljednje vrijeme moja mala sestra ne ponaša se kao prije.,neg,,0,29,ad_mode,ad_mode + ad_measure,relative pronouns
,Timer frame,html.Frame,2_32_1,,,,,,,7941.440000000002,383648,383635.58,383657.56,391599,391600,2025-02-02T13:33:30.744Z,391607.14,0xszmjDz0U,incremental,jednostavno-test,679df971131ae225e46b4282,participant,hcpib7hgm6nnouht,,,,Danas se moja mala sestra ponaša na taj način na koji se ne ponašala prije,U posljednje vrijeme moja mala sestra ne ponaša se kao prije.,neg,,0,29,ad_mode,ad_mode + ad_measure,relative pronouns
,inter-stimulus,canvas.Screen,2_32_2,,,,,,response,1372.859999999986,391601,391601.76,391607.14,392980,392985,2025-02-02T13:33:32.128Z,392995.76,0xszmjDz0U,incremental,jednostavno-test,679df971131ae225e46b4282,participant,hcpib7hgm6nnouht,,,mousedown,Danas se moja mala sestra ponaša na taj način na koji se ne ponašala prije,U posljednje vrijeme moja mala sestra ne ponaša se kao prije.,neg,,0,29,ad_mode,ad_mode + ad_measure,relative pronouns
,Sequence,flow.Sequence,2_32,,,,,,completion,15707.73999999999,377265,377251.66,377272.26,392980,392988,2025-02-02T13:33:32.133Z,392995.76,0xszmjDz0U,incremental,jednostavno-test,679df971131ae225e46b4282,participant,hcpib7hgm6nnouht,,,,Danas se moja mala sestra ponaša na taj način na koji se ne ponašala prije,U posljednje vrijeme moja mala sestra ne ponaša se kao prije.,neg,,0,29,ad_mode,ad_mode + ad_measure,relative pronouns
,context,canvas.Screen,2_33_0_0,,,,,,response,1898.2399999999907,392992,392979.58,392995.76,394894,394895,2025-02-02T13:33:34.039Z,394903.68,0xszmjDz0U,incremental,jednostavno-test,679df971131ae225e46b4282,participant,hcpib7hgm6nnouht,,,click,Pozvali smo ovog čovjeka o kojem smo pitali gdje radi.,Pitali smo gdje radi Grga.,iq,,,12,sub,sub + ad,relative pronouns
,Timer frame,html.Frame,2_33_0,,,,,,,1901.2399999999907,392990,392979.58,392995.76,394897,394897,2025-02-02T13:33:34.041Z,394903.68,0xszmjDz0U,incremental,jednostavno-test,679df971131ae225e46b4282,participant,hcpib7hgm6nnouht,,,,Pozvali smo ovog čovjeka o kojem smo pitali gdje radi.,Pitali smo gdje radi Grga.,iq,,,12,sub,sub + ad,relative pronouns
,stimulus,canvas.Screen,2_33_1_0,,,,,,response,6777.320000000007,394899,394892.62,394903.68,401681,401695,2025-02-02T13:33:40.838Z,401696.28,0xszmjDz0U,incremental,jednostavno-test,679df971131ae225e46b4282,participant,hcpib7hgm6nnouht,,7,click @7,Pozvali smo ovog čovjeka o kojem smo pitali gdje radi.,Pitali smo gdje radi Grga.,iq,,,12,sub,sub + ad,relative pronouns
,Timer frame,html.Frame,2_33_1,,,,,,,6792.320000000007,394898,394892.62,394903.68,401696,401697,2025-02-02T13:33:40.841Z,401696.28,0xszmjDz0U,incremental,jednostavno-test,679df971131ae225e46b4282,participant,hcpib7hgm6nnouht,,,,Pozvali smo ovog čovjeka o kojem smo pitali gdje radi.,Pitali smo gdje radi Grga.,iq,,,12,sub,sub + ad,relative pronouns
,inter-stimulus,canvas.Screen,2_33_2,,,,,,response,801.7199999999721,401698,401677.92,401696.28,402498,402504,2025-02-02T13:33:41.648Z,402514.32,0xszmjDz0U,incremental,jednostavno-test,679df971131ae225e46b4282,participant,hcpib7hgm6nnouht,,,mousedown,Pozvali smo ovog čovjeka o kojem smo pitali gdje radi.,Pitali smo gdje radi Grga.,iq,,,12,sub,sub + ad,relative pronouns
,Sequence,flow.Sequence,2_33,,,,,,completion,9502.23999999999,392990,392979.58,392995.76,402498,402507,2025-02-02T13:33:41.650Z,402514.32,0xszmjDz0U,incremental,jednostavno-test,679df971131ae225e46b4282,participant,hcpib7hgm6nnouht,,,,Pozvali smo ovog čovjeka o kojem smo pitali gdje radi.,Pitali smo gdje radi Grga.,iq,,,12,sub,sub + ad,relative pronouns
,context,canvas.Screen,2_34_0_0,,,,,,response,3911.679999999993,402509,402497.54,402514.32,406426,406432,2025-02-02T13:33:45.576Z,406438.48,0xszmjDz0U,incremental,jednostavno-test,679df971131ae225e46b4282,participant,hcpib7hgm6nnouht,,,click,"Kada, kurir je razjasnio, što mora dostaviti?",Kurir je razjasnio što mora dostaviti sutra.,iq,0,0,7,ad,ob + ad,interrogative pronouns
,Timer frame,html.Frame,2_34_0,,,,,,,3918.679999999993,402508,402497.54,402514.32,406433,406434,2025-02-02T13:33:45.577Z,406438.48,0xszmjDz0U,incremental,jednostavno-test,679df971131ae225e46b4282,participant,hcpib7hgm6nnouht,,,,"Kada, kurir je razjasnio, što mora dostaviti?",Kurir je razjasnio što mora dostaviti sutra.,iq,0,0,7,ad,ob + ad,interrogative pronouns
,stimulus,canvas.Screen,2_34_1_0,,,,,,response,4421.520000000019,406435,406422.62,406438.48,410860,410866,2025-02-02T13:33:50.010Z,410867.24,0xszmjDz0U,incremental,jednostavno-test,679df971131ae225e46b4282,participant,hcpib7hgm6nnouht,,6,click @6,"Kada, kurir je razjasnio, što mora dostaviti?",Kurir je razjasnio što mora dostaviti sutra.,iq,0,0,7,ad,ob + ad,interrogative pronouns
,Timer frame,html.Frame,2_34_1,,,,,,,4427.520000000019,406434,406422.62,406438.48,410866,410867,2025-02-02T13:33:50.011Z,410867.24,0xszmjDz0U,incremental,jednostavno-test,679df971131ae225e46b4282,participant,hcpib7hgm6nnouht,,,,"Kada, kurir je razjasnio, što mora dostaviti?",Kurir je razjasnio što mora dostaviti sutra.,iq,0,0,7,ad,ob + ad,interrogative pronouns
,inter-stimulus,canvas.Screen,2_34_2,,,,,,response,843.7600000000093,410868,410856.04,410867.24,411711,411716,2025-02-02T13:33:50.859Z,411726.98,0xszmjDz0U,incremental,jednostavno-test,679df971131ae225e46b4282,participant,hcpib7hgm6nnouht,,,mousedown,"Kada, kurir je razjasnio, što mora dostaviti?",Kurir je razjasnio što mora dostaviti sutra.,iq,0,0,7,ad,ob + ad,interrogative pronouns
,Sequence,flow.Sequence,2_34,,,,,,completion,9196.679999999993,402508,402497.54,402514.32,411711,411719,2025-02-02T13:33:50.862Z,411726.98,0xszmjDz0U,incremental,jednostavno-test,679df971131ae225e46b4282,participant,hcpib7hgm6nnouht,,,,"Kada, kurir je razjasnio, što mora dostaviti?",Kurir je razjasnio što mora dostaviti sutra.,iq,0,0,7,ad,ob + ad,interrogative pronouns
,context,canvas.Screen,2_35_0_0,,,,,,timeout,11005.440000000002,411724,411709.8,411726.98,422715.9,422723,2025-02-02T13:34:01.867Z,422732.42,0xszmjDz0U,incremental,jednostavno-test,679df971131ae225e46b4282,participant,hcpib7hgm6nnouht,,,,Kog moja obitelj nije povela na odmor u Bugarsku?,Moja obitelj nije povela mog brata na odmor u Bugarsku.,neg,,,20,ob,ob + ob,interrogative pronouns
,Timer frame,html.Frame,2_35_0,,,,,,,10999.020000000019,411721,411709.8,411726.98,422726,422728,2025-02-02T13:34:01.871Z,422773.72,0xszmjDz0U,incremental,jednostavno-test,679df971131ae225e46b4282,participant,hcpib7hgm6nnouht,,,,Kog moja obitelj nije povela na odmor u Bugarsku?,Moja obitelj nije povela mog brata na odmor u Bugarsku.,neg,,,20,ob,ob + ob,interrogative pronouns
,stimulus,canvas.Screen,2_35_1_0,,,,,,response,4087.280000000028,422731,422732.42,422773.72,426861,426866,2025-02-02T13:34:06.010Z,426871.04,0xszmjDz0U,incremental,jednostavno-test,679df971131ae225e46b4282,participant,hcpib7hgm6nnouht,,7,click @7,Kog moja obitelj nije povela na odmor u Bugarsku?,Moja obitelj nije povela mog brata na odmor u Bugarsku.,neg,,,20,ob,ob + ob,interrogative pronouns
,Timer frame,html.Frame,2_35_1,,,,,,,4093.280000000028,422729,422732.42,422773.72,426867,426867,2025-02-02T13:34:06.010Z,426871.04,0xszmjDz0U,incremental,jednostavno-test,679df971131ae225e46b4282,participant,hcpib7hgm6nnouht,,,,Kog moja obitelj nije povela na odmor u Bugarsku?,Moja obitelj nije povela mog brata na odmor u Bugarsku.,neg,,,20,ob,ob + ob,interrogative pronouns
,inter-stimulus,canvas.Screen,2_35_2,,,,,,response,1432.960000000021,426869,426857.2,426871.04,428304,428306,2025-02-02T13:34:07.450Z,428308.58,0xszmjDz0U,incremental,jednostavno-test,679df971131ae225e46b4282,participant,hcpib7hgm6nnouht,,,mousedown,Kog moja obitelj nije povela na odmor u Bugarsku?,Moja obitelj nije povela mog brata na odmor u Bugarsku.,neg,,,20,ob,ob + ob,interrogative pronouns
,Sequence,flow.Sequence,2_35,,,,,,completion,16577.02000000002,411721,411709.8,411726.98,428304,428307,2025-02-02T13:34:07.452Z,428308.58,0xszmjDz0U,incremental,jednostavno-test,679df971131ae225e46b4282,participant,hcpib7hgm6nnouht,,,,Kog moja obitelj nije povela na odmor u Bugarsku?,Moja obitelj nije povela mog brata na odmor u Bugarsku.,neg,,,20,ob,ob + ob,interrogative pronouns
,context,canvas.Screen,2_36_0_0,,,,,,response,2291.4199999999837,428310,428303.92,428308.58,430600,430603,2025-02-02T13:34:09.748Z,430613.6,0xszmjDz0U,incremental,jednostavno-test,679df971131ae225e46b4282,participant,hcpib7hgm6nnouht,,,click,Detektiv je vidio kriminalca kako izlazi iz trgovine.,Kriminalac izlazi iz trgovine.,gf,,,43,filler,filler,filler
,Timer frame,html.Frame,2_36_0,,,,,,,2296.4199999999837,428308,428303.92,428308.58,430605,430605,2025-02-02T13:34:09.750Z,430613.6,0xszmjDz0U,incremental,jednostavno-test,679df971131ae225e46b4282,participant,hcpib7hgm6nnouht,,,,Detektiv je vidio kriminalca kako izlazi iz trgovine.,Kriminalac izlazi iz trgovine.,gf,,,43,filler,filler,filler
,stimulus,canvas.Screen,2_36_1_0,,,,,,response,2408.4000000000233,430608,430596.54,430613.6,433022,433027,2025-02-02T13:34:12.172Z,433033.64,0xszmjDz0U,incremental,jednostavno-test,679df971131ae225e46b4282,participant,hcpib7hgm6nnouht,,7,click @7,Detektiv je vidio kriminalca kako izlazi iz trgovine.,Kriminalac izlazi iz trgovine.,gf,,,43,filler,filler,filler
,Timer frame,html.Frame,2_36_1,,,,,,,2415.4000000000233,430606,430596.54,430613.6,433029,433029,2025-02-02T13:34:12.173Z,433033.64,0xszmjDz0U,incremental,jednostavno-test,679df971131ae225e46b4282,participant,hcpib7hgm6nnouht,,,,Detektiv je vidio kriminalca kako izlazi iz trgovine.,Kriminalac izlazi iz trgovine.,gf,,,43,filler,filler,filler
,inter-stimulus,canvas.Screen,2_36_2,,,,,,response,1279.359999999986,433030,433019.68,433033.64,434313,434326,2025-02-02T13:34:13.470Z,434338.52,0xszmjDz0U,incremental,jednostavno-test,679df971131ae225e46b4282,participant,hcpib7hgm6nnouht,,,mousedown,Detektiv je vidio kriminalca kako izlazi iz trgovine.,Kriminalac izlazi iz trgovine.,gf,,,43,filler,filler,filler
,Sequence,flow.Sequence,2_36,,,,,,completion,6004.419999999984,428308,428303.92,428308.58,434313,434331,2025-02-02T13:34:13.475Z,434338.52,0xszmjDz0U,incremental,jednostavno-test,679df971131ae225e46b4282,participant,hcpib7hgm6nnouht,,,,Detektiv je vidio kriminalca kako izlazi iz trgovine.,Kriminalac izlazi iz trgovine.,gf,,,43,filler,filler,filler
,context,canvas.Screen,2_37_0_0,,,,,,response,2382.4799999999814,434336,434311.48,434338.52,436721,436726,2025-02-02T13:34:15.871Z,436734.26,0xszmjDz0U,incremental,jednostavno-test,679df971131ae225e46b4282,participant,hcpib7hgm6nnouht,,,click,"Kako, Perići znaju, da se Petar tog dana vozio kući?",Perići znaju da se Petar tog dana vrlo brzo vozio kući.,fac,,,38,ad_mode,ob + ad_mode,interrogative pronouns
,Timer frame,html.Frame,2_37_0,,,,,,,2389.4799999999814,434333,434311.48,434338.52,436728,436729,2025-02-02T13:34:15.873Z,436734.26,0xszmjDz0U,incremental,jednostavno-test,679df971131ae225e46b4282,participant,hcpib7hgm6nnouht,,,,"Kako, Perići znaju, da se Petar tog dana vozio kući?",Perići znaju da se Petar tog dana vrlo brzo vozio kući.,fac,,,38,ad_mode,ob + ad_mode,interrogative pronouns
,stimulus,canvas.Screen,2_37_1_0,,,,,,response,2998.7399999999907,436732,436716.88,436734.26,439733,439740,2025-02-02T13:34:18.884Z,439741.24,0xszmjDz0U,incremental,jednostavno-test,679df971131ae225e46b4282,participant,hcpib7hgm6nnouht,,7,click @7,"Kako, Perići znaju, da se Petar tog dana vozio kući?",Perići znaju da se Petar tog dana vrlo brzo vozio kući.,fac,,,38,ad_mode,ob + ad_mode,interrogative pronouns
,Timer frame,html.Frame,2_37_1,,,,,,,3006.7399999999907,436730,436716.88,436734.26,439741,439742,2025-02-02T13:34:18.886Z,439741.24,0xszmjDz0U,incremental,jednostavno-test,679df971131ae225e46b4282,participant,hcpib7hgm6nnouht,,,,"Kako, Perići znaju, da se Petar tog dana vozio kući?",Perići znaju da se Petar tog dana vrlo brzo vozio kući.,fac,,,38,ad_mode,ob + ad_mode,interrogative pronouns
,inter-stimulus,canvas.Screen,2_37_2,,,,,,response,977.7600000000093,439743,439729.78,439741.24,440719,440724,2025-02-02T13:34:19.868Z,440732.76,0xszmjDz0U,incremental,jednostavno-test,679df971131ae225e46b4282,participant,hcpib7hgm6nnouht,,,mousedown,"Kako, Perići znaju, da se Petar tog dana vozio kući?",Perići znaju da se Petar tog dana vrlo brzo vozio kući.,fac,,,38,ad_mode,ob + ad_mode,interrogative pronouns
,Sequence,flow.Sequence,2_37,,,,,,completion,6380.479999999981,434333,434311.48,434338.52,440719,440727,2025-02-02T13:34:19.871Z,440732.76,0xszmjDz0U,incremental,jednostavno-test,679df971131ae225e46b4282,participant,hcpib7hgm6nnouht,,,,"Kako, Perići znaju, da se Petar tog dana vozio kući?",Perići znaju da se Petar tog dana vrlo brzo vozio kući.,fac,,,38,ad_mode,ob + ad_mode,interrogative pronouns
,context,canvas.Screen,2_38_0_0,,,,,,response,3743.2399999999907,440731,440717.68,440732.76,444476,444482,2025-02-02T13:34:23.626Z,444492.18,0xszmjDz0U,incremental,jednostavno-test,679df971131ae225e46b4282,participant,hcpib7hgm6nnouht,,,click,Pronašao sam tu stvar koju znam da je Marina izgubila.,Znam da je Marina izgubila ključeve.,fac,0,,41,ob,ob + ob,non-interrogative component
,Timer frame,html.Frame,2_38_0,,,,,,,3751.2399999999907,440730,440717.68,440732.76,444484,444485,2025-02-02T13:34:23.629Z,444492.18,0xszmjDz0U,incremental,jednostavno-test,679df971131ae225e46b4282,participant,hcpib7hgm6nnouht,,,,Pronašao sam tu stvar koju znam da je Marina izgubila.,Znam da je Marina izgubila ključeve.,fac,0,,41,ob,ob + ob,non-interrogative component
,stimulus,canvas.Screen,2_38_1_0,,,,,,response,3772.820000000007,444489,444472.9,444492.18,448265,448271,2025-02-02T13:34:27.415Z,448275.2,0xszmjDz0U,incremental,jednostavno-test,679df971131ae225e46b4282,participant,hcpib7hgm6nnouht,,1,click @1,Pronašao sam tu stvar koju znam da je Marina izgubila.,Znam da je Marina izgubila ključeve.,fac,0,,41,ob,ob + ob,non-interrogative component
,Timer frame,html.Frame,2_38_1,,,,,,,3779.820000000007,444487,444472.9,444492.18,448272,448273,2025-02-02T13:34:27.417Z,448275.2,0xszmjDz0U,incremental,jednostavno-test,679df971131ae225e46b4282,participant,hcpib7hgm6nnouht,,,,Pronašao sam tu stvar koju znam da je Marina izgubila.,Znam da je Marina izgubila ključeve.,fac,0,,41,ob,ob + ob,non-interrogative component
,inter-stimulus,canvas.Screen,2_38_2,,,,,,response,789.7999999999884,448274,448261.94,448275.2,449065,449066,2025-02-02T13:34:28.211Z,449068.36,0xszmjDz0U,incremental,jednostavno-test,679df971131ae225e46b4282,participant,hcpib7hgm6nnouht,,,mousedown,Pronašao sam tu stvar koju znam da je Marina izgubila.,Znam da je Marina izgubila ključeve.,fac,0,,41,ob,ob + ob,non-interrogative component
,Sequence,flow.Sequence,2_38,,,,,,completion,8332.23999999999,440729,440717.68,440732.76,449065,449068,2025-02-02T13:34:28.211Z,449068.36,0xszmjDz0U,incremental,jednostavno-test,679df971131ae225e46b4282,participant,hcpib7hgm6nnouht,,,,Pronašao sam tu stvar koju znam da je Marina izgubila.,Znam da je Marina izgubila ključeve.,fac,0,,41,ob,ob + ob,non-interrogative component
,context,canvas.Screen,2_39_0_0,,,,,,response,5713.640000000014,449071,449064.58,449068.36,454782,454787,2025-02-02T13:34:33.930Z,454792.48,0xszmjDz0U,incremental,jednostavno-test,679df971131ae225e46b4282,participant,hcpib7hgm6nnouht,,,click,Sutra Stepan će naučiti toliko pjesama koliko nije stignuo naučiti jučer za sat književnosti.,Stepan nije stignuo naučiti 3 pjesme za sat književnosti.,neg,,,30,ad_measure,ad_mode + ad_measure,relative pronouns
,Timer frame,html.Frame,2_39_0,,,,,,,5719.640000000014,449069,449064.58,449068.36,454788,454789,2025-02-02T13:34:33.932Z,454792.48,0xszmjDz0U,incremental,jednostavno-test,679df971131ae225e46b4282,participant,hcpib7hgm6nnouht,,,,Sutra Stepan će naučiti toliko pjesama koliko nije stignuo naučiti jučer za sat književnosti.,Stepan nije stignuo naučiti 3 pjesme za sat književnosti.,neg,,,30,ad_measure,ad_mode + ad_measure,relative pronouns
,stimulus,canvas.Screen,2_39_1_0,,,,,,response,3225.5200000000186,454791,454778.4,454792.48,458018,458022,2025-02-02T13:34:37.165Z,458030.66,0xszmjDz0U,incremental,jednostavno-test,679df971131ae225e46b4282,participant,hcpib7hgm6nnouht,,1,click @1,Sutra Stepan će naučiti toliko pjesama koliko nije stignuo naučiti jučer za sat književnosti.,Stepan nije stignuo naučiti 3 pjesme za sat književnosti.,neg,,,30,ad_measure,ad_mode + ad_measure,relative pronouns
,Timer frame,html.Frame,2_39_1,,,,,,,3230.5200000000186,454790,454778.4,454792.48,458023,458024,2025-02-02T13:34:37.168Z,458030.66,0xszmjDz0U,incremental,jednostavno-test,679df971131ae225e46b4282,participant,hcpib7hgm6nnouht,,,,Sutra Stepan će naučiti toliko pjesama koliko nije stignuo naučiti jučer za sat književnosti.,Stepan nije stignuo naučiti 3 pjesme za sat književnosti.,neg,,,30,ad_measure,ad_mode + ad_measure,relative pronouns
,inter-stimulus,canvas.Screen,2_39_2,,,,,,response,870.3400000000256,458025,458014.42,458030.66,458901,458904,2025-02-02T13:34:38.048Z,458905.96,0xszmjDz0U,incremental,jednostavno-test,679df971131ae225e46b4282,participant,hcpib7hgm6nnouht,,,mousedown,Sutra Stepan će naučiti toliko pjesama koliko nije stignuo naučiti jučer za sat književnosti.,Stepan nije stignuo naučiti 3 pjesme za sat književnosti.,neg,,,30,ad_measure,ad_mode + ad_measure,relative pronouns
,Sequence,flow.Sequence,2_39,,,,,,completion,9832.640000000014,449069,449064.58,449068.36,458901,458905,2025-02-02T13:34:38.049Z,458905.96,0xszmjDz0U,incremental,jednostavno-test,679df971131ae225e46b4282,participant,hcpib7hgm6nnouht,,,,Sutra Stepan će naučiti toliko pjesama koliko nije stignuo naučiti jučer za sat književnosti.,Stepan nije stignuo naučiti 3 pjesme za sat književnosti.,neg,,,30,ad_measure,ad_mode + ad_measure,relative pronouns
,context,canvas.Screen,2_40_0_0,,,,,,response,4261.039999999979,458906,458900.9,458905.96,463167,463170,2025-02-02T13:34:42.314Z,463183.68,0xszmjDz0U,incremental,jednostavno-test,679df971131ae225e46b4282,participant,hcpib7hgm6nnouht,,,click,Kime je sanjao moj djed da postane a ne biznesmen kao je sad?,Moj djed je sanjao da postane pjevač a postao je biznismen.,nf,,,54,filler,filler,filler
,Timer frame,html.Frame,2_40_0,,,,,,,4265.039999999979,458905,458900.9,458905.96,463171,463172,2025-02-02T13:34:42.315Z,463183.68,0xszmjDz0U,incremental,jednostavno-test,679df971131ae225e46b4282,participant,hcpib7hgm6nnouht,,,,Kime je sanjao moj djed da postane a ne biznesmen kao je sad?,Moj djed je sanjao da postane pjevač a postao je biznismen.,nf,,,54,filler,filler,filler
,stimulus,canvas.Screen,2_40_1_0,,,,,,response,3446.320000000007,463174,463175.4,463183.68,466630,466642,2025-02-02T13:34:45.786Z,466652.3,0xszmjDz0U,incremental,jednostavno-test,679df971131ae225e46b4282,participant,hcpib7hgm6nnouht,,1,click @1,Kime je sanjao moj djed da postane a ne biznesmen kao je sad?,Moj djed je sanjao da postane pjevač a postao je biznismen.,nf,,,54,filler,filler,filler
,Timer frame,html.Frame,2_40_1,,,,,,,3461.320000000007,463173,463175.4,463183.68,466645,466646,2025-02-02T13:34:45.789Z,466652.3,0xszmjDz0U,incremental,jednostavno-test,679df971131ae225e46b4282,participant,hcpib7hgm6nnouht,,,,Kime je sanjao moj djed da postane a ne biznesmen kao je sad?,Moj djed je sanjao da postane pjevač a postao je biznismen.,nf,,,54,filler,filler,filler
,inter-stimulus,canvas.Screen,2_40_2,,,,,,response,1020.7000000000116,466646,466624.94,466652.3,467673,467680,2025-02-02T13:34:46.823Z,467693.14,0xszmjDz0U,incremental,jednostavno-test,679df971131ae225e46b4282,participant,hcpib7hgm6nnouht,,,mousedown,Kime je sanjao moj djed da postane a ne biznesmen kao je sad?,Moj djed je sanjao da postane pjevač a postao je biznismen.,nf,,,54,filler,filler,filler
,Sequence,flow.Sequence,2_40,,,,,,completion,8767.039999999979,458905,458900.9,458905.96,467673,467684,2025-02-02T13:34:46.827Z,467693.14,0xszmjDz0U,incremental,jednostavno-test,679df971131ae225e46b4282,participant,hcpib7hgm6nnouht,,,,Kime je sanjao moj djed da postane a ne biznesmen kao je sad?,Moj djed je sanjao da postane pjevač a postao je biznismen.,nf,,,54,filler,filler,filler
,context,canvas.Screen,2_41_0_0,,,,,,response,3164.859999999986,467687,467671.54,467693.14,470858,470861,2025-02-02T13:34:50.005Z,470865.16,0xszmjDz0U,incremental,jednostavno-test,679df971131ae225e46b4282,participant,hcpib7hgm6nnouht,,,click,"Što, učitelj je pitao, kome treba ponovno objasniti?",Učitelj je pitao kome treba ponovno objasniti novo pravilo..,iq,0,36,5,ob_indir,ob_dir + ob_indir,interrogative pronouns
,Timer frame,html.Frame,2_41_0,,,,,,,3168.859999999986,467686,467671.54,467693.14,470862,470863,2025-02-02T13:34:50.007Z,470865.16,0xszmjDz0U,incremental,jednostavno-test,679df971131ae225e46b4282,participant,hcpib7hgm6nnouht,,,,"Što, učitelj je pitao, kome treba ponovno objasniti?",Učitelj je pitao kome treba ponovno objasniti novo pravilo..,iq,0,36,5,ob_indir,ob_dir + ob_indir,interrogative pronouns
,stimulus,canvas.Screen,2_41_1_0,,,,,,response,3960.8400000000256,470865,470855.02,470865.16,474826,474831,2025-02-02T13:34:53.975Z,474838.26,0xszmjDz0U,incremental,jednostavno-test,679df971131ae225e46b4282,participant,hcpib7hgm6nnouht,,4,click @4,"Što, učitelj je pitao, kome treba ponovno objasniti?",Učitelj je pitao kome treba ponovno objasniti novo pravilo..,iq,0,36,5,ob_indir,ob_dir + ob_indir,interrogative pronouns
,Timer frame,html.Frame,2_41_1,,,,,,,3965.8400000000256,470864,470855.02,470865.16,474831,474832,2025-02-02T13:34:53.976Z,474838.26,0xszmjDz0U,incremental,jednostavno-test,679df971131ae225e46b4282,participant,hcpib7hgm6nnouht,,,,"Što, učitelj je pitao, kome treba ponovno objasniti?",Učitelj je pitao kome treba ponovno objasniti novo pravilo..,iq,0,36,5,ob_indir,ob_dir + ob_indir,interrogative pronouns
,inter-stimulus,canvas.Screen,2_41_2,,,,,,response,808.7399999999907,474833,474821.96,474838.26,475647,475649,2025-02-02T13:34:54.793Z,475655.78,0xszmjDz0U,incremental,jednostavno-test,679df971131ae225e46b4282,participant,hcpib7hgm6nnouht,,,mousedown,"Što, učitelj je pitao, kome treba ponovno objasniti?",Učitelj je pitao kome treba ponovno objasniti novo pravilo..,iq,0,36,5,ob_indir,ob_dir + ob_indir,interrogative pronouns
