meta,sender,sender_type,sender_id,age,education,croatian-knowledge,occupation,,ended_on,duration,time_run,time_render,time_show,time_end,time_commit,timestamp,time_switch,openLabId,type,task,project,status,code,confirmationCode,response,response_action,stimulus,context,island_type,transfer_s,transfer_c,id,movement,opposition,category
"{""labjs_version"":""20.2.4"",""labjs_build"":{""flavor"":""production"",""commit"":""f5b4a49f956347addd546a832a3327688c2c0fef""},""location"":""https://open-lab.online/test/jednostavno-test/679e8365131ae225e46b4560"",""userAgent"":""Mozilla/5.0 (Windows NT 10.0; Win64; x64) AppleWebKit/537.36 (KHTML, like Gecko) Chrome/132.0.0.0 Safari/537.36"",""platform"":""Win32"",""language"":""en-GB"",""locale"":""en-US"",""timeZone"":""Europe/Zagreb"",""timezoneOffset"":-60,""screen_width"":1536,""screen_height"":864,""scroll_width"":1536,""scroll_height"":647,""window_innerWidth"":1536,""window_innerHeight"":695,""devicePixelRatio"":1.25}",Demography form,html.Form,0,25,master,mother-tongue,inženjer računarstva,,form submission,24783.29999999404,860.9000000059605,851.6,868.3,25651.59999999404,25652.20000001788,2025-02-01T20:26:47.789Z,25665.5,6w7AwWxGao,incremental,jednostavno-test,679df971131ae225e46b4282,participant,hcpib7hgm6mn84ng,221424,,,,,,,,,,,
,context,canvas.Screen,1_0,,,,,,response,10768.09999999404,25652.5,25649.038,25665.5,36433.59999999404,36435.09999999404,2025-02-01T20:26:58.572Z,36447.7,6w7AwWxGao,incremental,jednostavno-test,679df971131ae225e46b4282,participant,hcpib7hgm6mn84ng,,,click,,,,,,,,,
,stimulus,canvas.Screen,1_1,,,,,,response,29799.600000011924,36435.30000001192,36432.1,36447.7,66247.30000001192,66248.20000001788,2025-02-01T20:27:28.385Z,66261,6w7AwWxGao,incremental,jednostavno-test,679df971131ae225e46b4282,participant,hcpib7hgm6mn84ng,,7,click @7,,,,,,,,,
,inter-stimulus,canvas.Screen,1_2,,,,,,response,9139.700000017881,66248.30000001192,66244.602,66261,75400.70000001788,75401.70000001788,2025-02-01T20:27:37.538Z,75426.7,6w7AwWxGao,incremental,jednostavno-test,679df971131ae225e46b4282,participant,hcpib7hgm6mn84ng,,,mousedown,,,,,,,,,
,context,canvas.Screen,1_3,,,,,,response,4593.200000005963,75401.90000000596,75410.064,75426.7,80019.90000000596,80020.90000000596,2025-02-01T20:27:42.160Z,80026.2,6w7AwWxGao,incremental,jednostavno-test,679df971131ae225e46b4282,participant,hcpib7hgm6mn84ng,,,click,,,,,,,,,
,stimulus,canvas.Screen,1_4,,,,,,response,6015.000000017884,80021.20000001788,80009.8,80026.2,86041.20000001788,86042,2025-02-01T20:27:48.181Z,86075.5,6w7AwWxGao,incremental,jednostavno-test,679df971131ae225e46b4282,participant,hcpib7hgm6mn84ng,,1,click @1,,,,,,,,,
,inter-stimulus,canvas.Screen,1_5,,,,,,response,1259.5999999940395,86042.09999999404,86059.13,86075.5,87335.09999999404,87336,2025-02-01T20:27:49.475Z,87342.2,6w7AwWxGao,incremental,jednostavno-test,679df971131ae225e46b4282,participant,hcpib7hgm6mn84ng,,,mousedown,,,,,,,,,
,context,canvas.Screen,1_6,,,,,,response,3946.5000000178843,87336.20000001788,87325.5,87342.2,91288.70000001788,91290,2025-02-01T20:27:53.429Z,91308.7,6w7AwWxGao,incremental,jednostavno-test,679df971131ae225e46b4282,participant,hcpib7hgm6mn84ng,,,click,,,,,,,,,
,stimulus,canvas.Screen,1_7_0,,,,,,response,8284.600000011924,91290.80000001192,91291.744,91308.7,99593.30000001192,99594.20000001788,2025-02-01T20:28:01.733Z,99607.6,6w7AwWxGao,incremental,jednostavno-test,679df971131ae225e46b4282,participant,hcpib7hgm6mn84ng,,5,click @5,,,,,,,,,
,Timer frame,html.Frame,1_7,,,,,,,8285.600000011924,91290.30000001192,91291.744,91308.7,99594.30000001192,99594.40000000596,2025-02-01T20:28:01.734Z,99607.6,6w7AwWxGao,incremental,jednostavno-test,679df971131ae225e46b4282,participant,hcpib7hgm6mn84ng,,,,,,,,,,,,
,inter-stimulus,canvas.Screen,1_8,,,,,,response,5357.600000017876,99594.5,99590.762,99607.6,104965.20000001788,104966.20000001788,2025-02-01T20:28:07.105Z,104973.5,6w7AwWxGao,incremental,jednostavno-test,679df971131ae225e46b4282,participant,hcpib7hgm6mn84ng,,,mousedown,,,,,,,,,
,First stimuli,flow.Sequence,1,,,,,,completion,79299.70000001788,25652.5,25649.038,25665.5,104965.20000001788,104966.40000000596,2025-02-01T20:28:07.106Z,104973.5,6w7AwWxGao,incremental,jednostavno-test,679df971131ae225e46b4282,participant,hcpib7hgm6mn84ng,,,,,,,,,,,,
,context,canvas.Screen,2_0_0_0,,,,,,response,6564.800000011921,104966.90000000596,104957.2,104973.5,111538.30000001192,111539.30000001192,2025-02-01T20:28:13.679Z,111556,6w7AwWxGao,incremental,jednostavno-test,679df971131ae225e46b4282,participant,hcpib7hgm6mn84ng,,,click,Što sam izčitao od te Necronomiconu?,Našao sam nekakav Necronomicon na tavanu.,nf,,,53,filler,filler,filler
,Timer frame,html.Frame,2_0_0,,,,,,,6566,104966.59999999404,104957.2,104973.5,111539.5,111539.59999999404,2025-02-01T20:28:13.679Z,111556,6w7AwWxGao,incremental,jednostavno-test,679df971131ae225e46b4282,participant,hcpib7hgm6mn84ng,,,,Što sam izčitao od te Necronomiconu?,Našao sam nekakav Necronomicon na tavanu.,nf,,,53,filler,filler,filler
,stimulus,canvas.Screen,2_0_1_0,,,,,,response,5057.800000011921,111539.90000000596,111539.458,111556,116613.80000001192,116615,2025-02-01T20:28:18.754Z,116622.2,6w7AwWxGao,incremental,jednostavno-test,679df971131ae225e46b4282,participant,hcpib7hgm6mn84ng,,1,click @1,Što sam izčitao od te Necronomiconu?,Našao sam nekakav Necronomicon na tavanu.,nf,,,53,filler,filler,filler
,Timer frame,html.Frame,2_0_1,,,,,,,5059.200000017881,111539.70000001788,111539.458,111556,116615.20000001788,116615.20000001788,2025-02-01T20:28:18.755Z,116622.2,6w7AwWxGao,incremental,jednostavno-test,679df971131ae225e46b4282,participant,hcpib7hgm6mn84ng,,,,Što sam izčitao od te Necronomiconu?,Našao sam nekakav Necronomicon na tavanu.,nf,,,53,filler,filler,filler
,inter-stimulus,canvas.Screen,2_0_2,,,,,,response,1543.2000000059634,116615.30000001192,116605.586,116622.2,118165.40000000596,118166.90000000596,2025-02-01T20:28:20.306Z,118172,6w7AwWxGao,incremental,jednostavno-test,679df971131ae225e46b4282,participant,hcpib7hgm6mn84ng,,,mousedown,Što sam izčitao od te Necronomiconu?,Našao sam nekakav Necronomicon na tavanu.,nf,,,53,filler,filler,filler
,Sequence,flow.Sequence,2_0,,,,,,completion,13191.90000000596,104966.59999999404,104957.2,104973.5,118165.40000000596,118167.09999999404,2025-02-01T20:28:20.306Z,118172,6w7AwWxGao,incremental,jednostavno-test,679df971131ae225e46b4282,participant,hcpib7hgm6mn84ng,,,,Što sam izčitao od te Necronomiconu?,Našao sam nekakav Necronomicon na tavanu.,nf,,,53,filler,filler,filler
,context,canvas.Screen,2_1_0_0,,,,,,response,4148.300000011921,118167.5,118155.7,118172,122320.30000001192,122321.5,2025-02-01T20:28:24.461Z,122338.1,6w7AwWxGao,incremental,jednostavno-test,679df971131ae225e46b4282,participant,hcpib7hgm6mn84ng,,,click,Kako je Ivo rekao da se smijao u kinu?,Ivo je rekao da se smijao vrlo glasno u kinu.,fac,,,35,ad_mode,ob_dir + ad_mode + ad_measure,interrogative pronouns
,Timer frame,html.Frame,2_1_0,,,,,,,4149.5999999940395,118167.20000001788,118155.7,118172,122321.59999999404,122321.70000001788,2025-02-01T20:28:24.461Z,122338.1,6w7AwWxGao,incremental,jednostavno-test,679df971131ae225e46b4282,participant,hcpib7hgm6mn84ng,,,,Kako je Ivo rekao da se smijao u kinu?,Ivo je rekao da se smijao vrlo glasno u kinu.,fac,,,35,ad_mode,ob_dir + ad_mode + ad_measure,interrogative pronouns
,stimulus,canvas.Screen,2_1_1_0,,,,,,response,8284.399999999994,122322.09999999404,122321.652,122338.1,130622.5,130623.20000001788,2025-02-01T20:28:32.762Z,130637.3,6w7AwWxGao,incremental,jednostavno-test,679df971131ae225e46b4282,participant,hcpib7hgm6mn84ng,,3,click @3,Kako je Ivo rekao da se smijao u kinu?,Ivo je rekao da se smijao vrlo glasno u kinu.,fac,,,35,ad_mode,ob_dir + ad_mode + ad_measure,interrogative pronouns
,Timer frame,html.Frame,2_1_1,,,,,,,8285.300000005955,122321.80000001192,122321.652,122338.1,130623.40000000596,130623.40000000596,2025-02-01T20:28:32.763Z,130637.3,6w7AwWxGao,incremental,jednostavno-test,679df971131ae225e46b4282,participant,hcpib7hgm6mn84ng,,,,Kako je Ivo rekao da se smijao u kinu?,Ivo je rekao da se smijao vrlo glasno u kinu.,fac,,,35,ad_mode,ob_dir + ad_mode + ad_measure,interrogative pronouns
,inter-stimulus,canvas.Screen,2_1_2,,,,,,response,4327.199999999997,130623.5,130620.894,130637.3,134964.5,134965.5,2025-02-01T20:28:37.105Z,134970.2,6w7AwWxGao,incremental,jednostavno-test,679df971131ae225e46b4282,participant,hcpib7hgm6mn84ng,,,mousedown,Kako je Ivo rekao da se smijao u kinu?,Ivo je rekao da se smijao vrlo glasno u kinu.,fac,,,35,ad_mode,ob_dir + ad_mode + ad_measure,interrogative pronouns
,Sequence,flow.Sequence,2_1,,,,,,completion,16792.5,118167.20000001788,118155.7,118172,134964.5,134965.70000001788,2025-02-01T20:28:37.105Z,134970.2,6w7AwWxGao,incremental,jednostavno-test,679df971131ae225e46b4282,participant,hcpib7hgm6mn84ng,,,,Kako je Ivo rekao da se smijao u kinu?,Ivo je rekao da se smijao vrlo glasno u kinu.,fac,,,35,ad_mode,ob_dir + ad_mode + ad_measure,interrogative pronouns
,context,canvas.Screen,2_2_0_0,,,,,,response,3174.1000000119093,134966.09999999404,134953.7,134970.2,138144.30000001192,138145.20000001788,2025-02-01T20:28:40.287Z,138153.1,6w7AwWxGao,incremental,jednostavno-test,679df971131ae225e46b4282,participant,hcpib7hgm6mn84ng,,,click,Pozvali smo ovog čovjeka o kojem smo pitali gdje radi.,Pitali smo gdje radi Grga.,iq,,,12,sub,sub + ad,relative pronouns
,Timer frame,html.Frame,2_2_0,,,,,,,3175.1000000119093,134965.80000001192,134953.7,134970.2,138145.30000001192,138145.30000001192,2025-02-01T20:28:40.287Z,138153.1,6w7AwWxGao,incremental,jednostavno-test,679df971131ae225e46b4282,participant,hcpib7hgm6mn84ng,,,,Pozvali smo ovog čovjeka o kojem smo pitali gdje radi.,Pitali smo gdje radi Grga.,iq,,,12,sub,sub + ad,relative pronouns
,stimulus,canvas.Screen,2_2_1_0,,,,,,response,7875.600000017876,138145.59999999404,138136.46,138153.1,146028.70000001788,146029.5,2025-02-01T20:28:48.172Z,146035.6,6w7AwWxGao,incremental,jednostavno-test,679df971131ae225e46b4282,participant,hcpib7hgm6mn84ng,,2,click @2,Pozvali smo ovog čovjeka o kojem smo pitali gdje radi.,Pitali smo gdje radi Grga.,iq,,,12,sub,sub + ad,relative pronouns
,Timer frame,html.Frame,2_2_1,,,,,,,7876.600000017876,138145.40000000596,138136.46,138153.1,146029.70000001788,146029.80000001192,2025-02-01T20:28:48.172Z,146035.6,6w7AwWxGao,incremental,jednostavno-test,679df971131ae225e46b4282,participant,hcpib7hgm6mn84ng,,,,Pozvali smo ovog čovjeka o kojem smo pitali gdje radi.,Pitali smo gdje radi Grga.,iq,,,12,sub,sub + ad,relative pronouns
,inter-stimulus,canvas.Screen,2_2_2,,,,,,response,905.2000000119151,146029.90000000596,146019.09,146035.6,146940.80000001192,146941.90000000596,2025-02-01T20:28:49.084Z,146968.8,6w7AwWxGao,incremental,jednostavno-test,679df971131ae225e46b4282,participant,hcpib7hgm6mn84ng,,,mousedown,Pozvali smo ovog čovjeka o kojem smo pitali gdje radi.,Pitali smo gdje radi Grga.,iq,,,12,sub,sub + ad,relative pronouns
,Sequence,flow.Sequence,2_2,,,,,,completion,11970.60000001191,134965.80000001192,134953.7,134970.2,146940.80000001192,146942.09999999404,2025-02-01T20:28:49.084Z,146968.8,6w7AwWxGao,incremental,jednostavno-test,679df971131ae225e46b4282,participant,hcpib7hgm6mn84ng,,,,Pozvali smo ovog čovjeka o kojem smo pitali gdje radi.,Pitali smo gdje radi Grga.,iq,,,12,sub,sub + ad,relative pronouns
,context,canvas.Screen,2_3_0_0,,,,,,response,3615.5000000119326,146942.5,146952.2,146968.8,150584.30000001192,150585.09999999404,2025-02-01T20:28:52.727Z,150601.8,6w7AwWxGao,incremental,jednostavno-test,679df971131ae225e46b4282,participant,hcpib7hgm6mn84ng,,,click,"Ovo je dječak, kojeg moja obitelj nije povela na odmor u Bugarsku.",Moja obitelj nije povela mog brata na odmor u Bugarsku.,neg,,,26,ob,ob + ob,relative pronouns
,Timer frame,html.Frame,2_3_0,,,,,,,3616.400000017893,146942.09999999404,146952.2,146968.8,150585.20000001788,150585.20000001788,2025-02-01T20:28:52.727Z,150601.8,6w7AwWxGao,incremental,jednostavno-test,679df971131ae225e46b4282,participant,hcpib7hgm6mn84ng,,,,"Ovo je dječak, kojeg moja obitelj nije povela na odmor u Bugarsku.",Moja obitelj nije povela mog brata na odmor u Bugarsku.,neg,,,26,ob,ob + ob,relative pronouns
,stimulus,canvas.Screen,2_3_1_0,,,,,,response,7784.299999994051,150585.5,150585.402,150601.8,158386.09999999404,158386.90000000596,2025-02-01T20:29:00.529Z,158400.9,6w7AwWxGao,incremental,jednostavno-test,679df971131ae225e46b4282,participant,hcpib7hgm6mn84ng,,7,click @7,"Ovo je dječak, kojeg moja obitelj nije povela na odmor u Bugarsku.",Moja obitelj nije povela mog brata na odmor u Bugarsku.,neg,,,26,ob,ob + ob,relative pronouns
,Timer frame,html.Frame,2_3_1,,,,,,,7785.200000000012,150585.30000001192,150585.402,150601.8,158387,158387.20000001788,2025-02-01T20:29:00.529Z,158400.9,6w7AwWxGao,incremental,jednostavno-test,679df971131ae225e46b4282,participant,hcpib7hgm6mn84ng,,,,"Ovo je dječak, kojeg moja obitelj nije povela na odmor u Bugarsku.",Moja obitelj nije povela mog brata na odmor u Bugarsku.,neg,,,26,ob,ob + ob,relative pronouns
,inter-stimulus,canvas.Screen,2_3_2,,,,,,response,1102.8000000178872,158387.30000001192,158384.358,158400.9,159503.70000001788,159505.09999999404,2025-02-01T20:29:01.647Z,159517.5,6w7AwWxGao,incremental,jednostavno-test,679df971131ae225e46b4282,participant,hcpib7hgm6mn84ng,,,mousedown,"Ovo je dječak, kojeg moja obitelj nije povela na odmor u Bugarsku.",Moja obitelj nije povela mog brata na odmor u Bugarsku.,neg,,,26,ob,ob + ob,relative pronouns
,Sequence,flow.Sequence,2_3,,,,,,completion,12534.900000017893,146942.09999999404,146952.2,146968.8,159503.70000001788,159505.30000001192,2025-02-01T20:29:01.647Z,159517.5,6w7AwWxGao,incremental,jednostavno-test,679df971131ae225e46b4282,participant,hcpib7hgm6mn84ng,,,,"Ovo je dječak, kojeg moja obitelj nije povela na odmor u Bugarsku.",Moja obitelj nije povela mog brata na odmor u Bugarsku.,neg,,,26,ob,ob + ob,relative pronouns
,context,canvas.Screen,2_4_0_0,,,,,,response,2102.800000011921,159505.80000001192,159501,159517.5,161620.30000001192,161621,2025-02-01T20:29:03.763Z,161634,6w7AwWxGao,incremental,jednostavno-test,679df971131ae225e46b4282,participant,hcpib7hgm6mn84ng,,,click,Što Danijela ne voli gledati?,Danijela ne voli gledati nogomet.,neg,,,19,ob,ob + ob,interrogative pronouns
,Timer frame,html.Frame,2_4_0,,,,,,,2103.5999999940395,159505.5,159501,159517.5,161621.09999999404,161621.20000001788,2025-02-01T20:29:03.763Z,161634,6w7AwWxGao,incremental,jednostavno-test,679df971131ae225e46b4282,participant,hcpib7hgm6mn84ng,,,,Što Danijela ne voli gledati?,Danijela ne voli gledati nogomet.,neg,,,19,ob,ob + ob,interrogative pronouns
,stimulus,canvas.Screen,2_4_1_0,,,,,,response,2058.5,161621.5,161617.51,161634,163692.5,163693.30000001192,2025-02-01T20:29:05.835Z,163700.4,6w7AwWxGao,incremental,jednostavno-test,679df971131ae225e46b4282,participant,hcpib7hgm6mn84ng,,7,click @7,Što Danijela ne voli gledati?,Danijela ne voli gledati nogomet.,neg,,,19,ob,ob + ob,interrogative pronouns
,Timer frame,html.Frame,2_4_1,,,,,,,2059.4000000059605,161621.30000001192,161617.51,161634,163693.40000000596,163693.59999999404,2025-02-01T20:29:05.836Z,163700.4,6w7AwWxGao,incremental,jednostavno-test,679df971131ae225e46b4282,participant,hcpib7hgm6mn84ng,,,,Što Danijela ne voli gledati?,Danijela ne voli gledati nogomet.,neg,,,19,ob,ob + ob,interrogative pronouns
,inter-stimulus,canvas.Screen,2_4_2,,,,,,response,997.9000000119267,163693.59999999404,163683.7,163700.4,164698.30000001192,164699.30000001192,2025-02-01T20:29:06.841Z,164717.9,6w7AwWxGao,incremental,jednostavno-test,679df971131ae225e46b4282,participant,hcpib7hgm6mn84ng,,,mousedown,Što Danijela ne voli gledati?,Danijela ne voli gledati nogomet.,neg,,,19,ob,ob + ob,interrogative pronouns
,Sequence,flow.Sequence,2_4,,,,,,completion,5180.800000011921,159505.40000000596,159501,159517.5,164698.30000001192,164699.40000000596,2025-02-01T20:29:06.841Z,164717.9,6w7AwWxGao,incremental,jednostavno-test,679df971131ae225e46b4282,participant,hcpib7hgm6mn84ng,,,,Što Danijela ne voli gledati?,Danijela ne voli gledati nogomet.,neg,,,19,ob,ob + ob,interrogative pronouns
,context,canvas.Screen,2_5_0_0,,,,,,response,3486.0000000059663,164699.90000000596,164700.36,164717.9,168203.90000000596,168204.59999999404,2025-02-01T20:29:10.347Z,168233.1,6w7AwWxGao,incremental,jednostavno-test,679df971131ae225e46b4282,participant,hcpib7hgm6mn84ng,,,click,Koga je Ivo rekao da je nazvao u petak?,Ivo je rekao da je svog prijatelja nazvao u petak.,fac,,,34,ob_dir,ob_dir + ad_mode + ad_measure,interrogative pronouns
,Timer frame,html.Frame,2_5_0,,,,,,,3486.800000017887,164699.5,164700.36,164717.9,168204.70000001788,168204.70000001788,2025-02-01T20:29:10.347Z,168233.1,6w7AwWxGao,incremental,jednostavno-test,679df971131ae225e46b4282,participant,hcpib7hgm6mn84ng,,,,Koga je Ivo rekao da je nazvao u petak?,Ivo je rekao da je svog prijatelja nazvao u petak.,fac,,,34,ob_dir,ob_dir + ad_mode + ad_measure,interrogative pronouns
,stimulus,canvas.Screen,2_5_1_0,,,,,,response,6705.100000017876,168205,168216.5,168233.1,174938.20000001788,174939.09999999404,2025-02-01T20:29:17.081Z,174949.1,6w7AwWxGao,incremental,jednostavno-test,679df971131ae225e46b4282,participant,hcpib7hgm6mn84ng,,6,click @6,Koga je Ivo rekao da je nazvao u petak?,Ivo je rekao da je svog prijatelja nazvao u petak.,fac,,,34,ob_dir,ob_dir + ad_mode + ad_measure,interrogative pronouns
,Timer frame,html.Frame,2_5_1,,,,,,,6706.100000017876,168204.80000001192,168216.5,168233.1,174939.20000001788,174939.20000001788,2025-02-01T20:29:17.081Z,174949.1,6w7AwWxGao,incremental,jednostavno-test,679df971131ae225e46b4282,participant,hcpib7hgm6mn84ng,,,,Koga je Ivo rekao da je nazvao u petak?,Ivo je rekao da je svog prijatelja nazvao u petak.,fac,,,34,ob_dir,ob_dir + ad_mode + ad_measure,interrogative pronouns
,inter-stimulus,canvas.Screen,2_5_2,,,,,,response,841.8000000059546,174939.30000001192,174932.564,174949.1,175790.90000000596,175791.80000001192,2025-02-01T20:29:17.934Z,175799,6w7AwWxGao,incremental,jednostavno-test,679df971131ae225e46b4282,participant,hcpib7hgm6mn84ng,,,mousedown,Koga je Ivo rekao da je nazvao u petak?,Ivo je rekao da je svog prijatelja nazvao u petak.,fac,,,34,ob_dir,ob_dir + ad_mode + ad_measure,interrogative pronouns
,Sequence,flow.Sequence,2_5,,,,,,completion,11073.000000005966,164699.5,164700.36,164717.9,175790.90000000596,175791.90000000596,2025-02-01T20:29:17.934Z,175799,6w7AwWxGao,incremental,jednostavno-test,679df971131ae225e46b4282,participant,hcpib7hgm6mn84ng,,,,Koga je Ivo rekao da je nazvao u petak?,Ivo je rekao da je svog prijatelja nazvao u petak.,fac,,,34,ob_dir,ob_dir + ad_mode + ad_measure,interrogative pronouns
,context,canvas.Screen,2_6_0_0,,,,,,response,2760.300000011921,175792.90000000596,175782.5,175799,178559.30000001192,178560.40000000596,2025-02-01T20:29:20.702Z,178565.4,6w7AwWxGao,incremental,jednostavno-test,679df971131ae225e46b4282,participant,hcpib7hgm6mn84ng,,,click,Koliko je moja sestra platila taksi od zračne luke.,Moja sestra platila je taksi od zračne luke.,gf,0,0,46,filler,filler,filler
,Timer frame,html.Frame,2_6_0,,,,,,,2761.5,175792,175782.5,175799,178560.5,178560.59999999404,2025-02-01T20:29:20.703Z,178565.4,6w7AwWxGao,incremental,jednostavno-test,679df971131ae225e46b4282,participant,hcpib7hgm6mn84ng,,,,Koliko je moja sestra platila taksi od zračne luke.,Moja sestra platila je taksi od zračne luke.,gf,0,0,46,filler,filler,filler
,stimulus,canvas.Screen,2_6_1_0,,,,,,response,7093.800000017887,178561,178548.96,178565.4,185659.20000001788,185660,2025-02-01T20:29:27.802Z,185664.6,6w7AwWxGao,incremental,jednostavno-test,679df971131ae225e46b4282,participant,hcpib7hgm6mn84ng,,6,click @6,Koliko je moja sestra platila taksi od zračne luke.,Moja sestra platila je taksi od zračne luke.,gf,0,0,46,filler,filler,filler
,Timer frame,html.Frame,2_6_1,,,,,,,7094.699999994045,178560.59999999404,178548.96,178565.4,185660.09999999404,185660.20000001788,2025-02-01T20:29:27.802Z,185664.6,6w7AwWxGao,incremental,jednostavno-test,679df971131ae225e46b4282,participant,hcpib7hgm6mn84ng,,,,Koliko je moja sestra platila taksi od zračne luke.,Moja sestra platila je taksi od zračne luke.,gf,0,0,46,filler,filler,filler
,inter-stimulus,canvas.Screen,2_6_2,,,,,,response,1125.9999999940337,185660.30000001192,185648,185664.6,186790.59999999404,186792.09999999404,2025-02-01T20:29:28.934Z,186797.9,6w7AwWxGao,incremental,jednostavno-test,679df971131ae225e46b4282,participant,hcpib7hgm6mn84ng,,,mousedown,Koliko je moja sestra platila taksi od zračne luke.,Moja sestra platila je taksi od zračne luke.,gf,0,0,46,filler,filler,filler
,Sequence,flow.Sequence,2_6,,,,,,completion,10991.59999999404,175792,175782.5,175799,186790.59999999404,186792.20000001788,2025-02-01T20:29:28.934Z,186797.9,6w7AwWxGao,incremental,jednostavno-test,679df971131ae225e46b4282,participant,hcpib7hgm6mn84ng,,,,Koliko je moja sestra platila taksi od zračne luke.,Moja sestra platila je taksi od zračne luke.,gf,0,0,46,filler,filler,filler
,context,canvas.Screen,2_7_0_0,,,,,,response,2889.1999999940454,186792.70000001788,186781.3,186797.9,189687.09999999404,189687.90000000596,2025-02-01T20:29:31.830Z,189697.5,6w7AwWxGao,incremental,jednostavno-test,679df971131ae225e46b4282,participant,hcpib7hgm6mn84ng,,,click,"Što, zanima ih, tko će kupiti za vjenčani dar?",Zanima ih tko će kupiti posuđe za vjenčani dar.,iq,0,0,1,ob,sub + ob,interrogative pronouns
,Timer frame,html.Frame,2_7_0,,,,,,,2890.0000000059663,186792.40000000596,186781.3,186797.9,189687.90000000596,189688,2025-02-01T20:29:31.830Z,189697.5,6w7AwWxGao,incremental,jednostavno-test,679df971131ae225e46b4282,participant,hcpib7hgm6mn84ng,,,,"Što, zanima ih, tko će kupiti za vjenčani dar?",Zanima ih tko će kupiti posuđe za vjenčani dar.,iq,0,0,1,ob,sub + ob,interrogative pronouns
,stimulus,canvas.Screen,2_7_1_0,,,,,,response,5535.0999999940395,189688.30000001192,189681.048,189697.5,195232.59999999404,195233.30000001192,2025-02-01T20:29:37.375Z,195263.5,6w7AwWxGao,incremental,jednostavno-test,679df971131ae225e46b4282,participant,hcpib7hgm6mn84ng,,2,click @2,"Što, zanima ih, tko će kupiti za vjenčani dar?",Zanima ih tko će kupiti posuđe za vjenčani dar.,iq,0,0,1,ob,sub + ob,interrogative pronouns
,Timer frame,html.Frame,2_7_1,,,,,,,5535.9000000059605,189688.09999999404,189681.048,189697.5,195233.40000000596,195233.5,2025-02-01T20:29:37.375Z,195263.5,6w7AwWxGao,incremental,jednostavno-test,679df971131ae225e46b4282,participant,hcpib7hgm6mn84ng,,,,"Što, zanima ih, tko će kupiti za vjenčani dar?",Zanima ih tko će kupiti posuđe za vjenčani dar.,iq,0,0,1,ob,sub + ob,interrogative pronouns
,inter-stimulus,canvas.Screen,2_7_2,,,,,,response,915.0999999940395,195233.5,195246.898,195263.5,196178.59999999404,196180,2025-02-01T20:29:38.322Z,196196.8,6w7AwWxGao,incremental,jednostavno-test,679df971131ae225e46b4282,participant,hcpib7hgm6mn84ng,,,mousedown,"Što, zanima ih, tko će kupiti za vjenčani dar?",Zanima ih tko će kupiti posuđe za vjenčani dar.,iq,0,0,1,ob,sub + ob,interrogative pronouns
,Sequence,flow.Sequence,2_7,,,,,,completion,9380.699999994045,186792.40000000596,186781.3,186797.9,196178.59999999404,196180.09999999404,2025-02-01T20:29:38.322Z,196196.8,6w7AwWxGao,incremental,jednostavno-test,679df971131ae225e46b4282,participant,hcpib7hgm6mn84ng,,,,"Što, zanima ih, tko će kupiti za vjenčani dar?",Zanima ih tko će kupiti posuđe za vjenčani dar.,iq,0,0,1,ob,sub + ob,interrogative pronouns
,context,canvas.Screen,2_8_0_0,,,,,,response,4919.100000005972,196180.5,196180.2,196196.8,201115.90000000596,201116.5,2025-02-01T20:29:43.261Z,201146.2,6w7AwWxGao,incremental,jednostavno-test,679df971131ae225e46b4282,participant,hcpib7hgm6mn84ng,,,click,Kogo je Ivan požalio što je pozvao na zabavu?,Ivan je požalio što je šefa pozvao na zabavu.,fac,,,31,ob_dir,ob_dir + ad_mode + ad_measure,interrogative pronouns
,Timer frame,html.Frame,2_8_0,,,,,,,4919.900000017893,196180.20000001788,196180.2,196196.8,201116.70000001788,201116.80000001192,2025-02-01T20:29:43.261Z,201146.2,6w7AwWxGao,incremental,jednostavno-test,679df971131ae225e46b4282,participant,hcpib7hgm6mn84ng,,,,Kogo je Ivan požalio što je pozvao na zabavu?,Ivan je požalio što je šefa pozvao na zabavu.,fac,,,31,ob_dir,ob_dir + ad_mode + ad_measure,interrogative pronouns
,stimulus,canvas.Screen,2_8_1_0,,,,,,response,5871.899999994028,201117,201129.694,201146.2,207018.09999999404,207019.40000000596,2025-02-01T20:29:49.164Z,207028.8,6w7AwWxGao,incremental,jednostavno-test,679df971131ae225e46b4282,participant,hcpib7hgm6mn84ng,,2,click @2,Kogo je Ivan požalio što je pozvao na zabavu?,Ivan je požalio što je šefa pozvao na zabavu.,fac,,,31,ob_dir,ob_dir + ad_mode + ad_measure,interrogative pronouns
,Timer frame,html.Frame,2_8_1,,,,,,,5873.299999999988,201116.80000001192,201129.694,201146.2,207019.5,207019.59999999404,2025-02-01T20:29:49.164Z,207028.8,6w7AwWxGao,incremental,jednostavno-test,679df971131ae225e46b4282,participant,hcpib7hgm6mn84ng,,,,Kogo je Ivan požalio što je pozvao na zabavu?,Ivan je požalio što je šefa pozvao na zabavu.,fac,,,31,ob_dir,ob_dir + ad_mode + ad_measure,interrogative pronouns
,inter-stimulus,canvas.Screen,2_8_2,,,,,,response,554.0000000119326,207019.70000001788,207012.406,207028.8,207582.80000001192,207583.70000001788,2025-02-01T20:29:49.728Z,207595.5,6w7AwWxGao,incremental,jednostavno-test,679df971131ae225e46b4282,participant,hcpib7hgm6mn84ng,,,mousedown,Kogo je Ivan požalio što je pozvao na zabavu?,Ivan je požalio što je šefa pozvao na zabavu.,fac,,,31,ob_dir,ob_dir + ad_mode + ad_measure,interrogative pronouns
,Sequence,flow.Sequence,2_8,,,,,,completion,11386.000000011933,196180.20000001788,196180.2,196196.8,207582.80000001192,207583.90000000596,2025-02-01T20:29:49.729Z,207595.5,6w7AwWxGao,incremental,jednostavno-test,679df971131ae225e46b4282,participant,hcpib7hgm6mn84ng,,,,Kogo je Ivan požalio što je pozvao na zabavu?,Ivan je požalio što je šefa pozvao na zabavu.,fac,,,31,ob_dir,ob_dir + ad_mode + ad_measure,interrogative pronouns
,context,canvas.Screen,2_9_0_0,,,,,,response,3938.5999999940395,207584.20000001788,207578.922,207595.5,211534.09999999404,211535.20000001788,2025-02-01T20:29:53.680Z,211545.1,6w7AwWxGao,incremental,jednostavno-test,679df971131ae225e46b4282,participant,hcpib7hgm6mn84ng,,,click,Koliko pjesama Stepan nije stignuo naučiti za sat književnosti?,Stepan nije stignuo naučiti 3 pjesme za sat književnosti.,neg,,,24,ad_measure,ad_mode + ad_measure,interrogative pronouns
,Timer frame,html.Frame,2_9_0,,,,,,,3939.800000011921,207584,207578.922,207595.5,211535.30000001192,211535.40000000596,2025-02-01T20:29:53.680Z,211545.1,6w7AwWxGao,incremental,jednostavno-test,679df971131ae225e46b4282,participant,hcpib7hgm6mn84ng,,,,Koliko pjesama Stepan nije stignuo naučiti za sat književnosti?,Stepan nije stignuo naučiti 3 pjesme za sat književnosti.,neg,,,24,ad_measure,ad_mode + ad_measure,interrogative pronouns
,stimulus,canvas.Screen,2_9_1_0,,,,,,response,7284.499999994034,211535.59999999404,211528.762,211545.1,218829.59999999404,218830.59999999404,2025-02-01T20:30:00.975Z,218844.2,6w7AwWxGao,incremental,jednostavno-test,679df971131ae225e46b4282,participant,hcpib7hgm6mn84ng,,3,click @3,Koliko pjesama Stepan nije stignuo naučiti za sat književnosti?,Stepan nije stignuo naučiti 3 pjesme za sat književnosti.,neg,,,24,ad_measure,ad_mode + ad_measure,interrogative pronouns
,Timer frame,html.Frame,2_9_1,,,,,,,7285.700000011915,211535.5,211528.762,211545.1,218830.80000001192,218830.80000001192,2025-02-01T20:30:00.975Z,218844.2,6w7AwWxGao,incremental,jednostavno-test,679df971131ae225e46b4282,participant,hcpib7hgm6mn84ng,,,,Koliko pjesama Stepan nije stignuo naučiti za sat književnosti?,Stepan nije stignuo naučiti 3 pjesme za sat književnosti.,neg,,,24,ad_measure,ad_mode + ad_measure,interrogative pronouns
,inter-stimulus,canvas.Screen,2_9_2,,,,,,response,980.3999999940279,218830.90000000596,218827.79,218844.2,219824.59999999404,219825.5,2025-02-01T20:30:01.970Z,219827.5,6w7AwWxGao,incremental,jednostavno-test,679df971131ae225e46b4282,participant,hcpib7hgm6mn84ng,,,mousedown,Koliko pjesama Stepan nije stignuo naučiti za sat književnosti?,Stepan nije stignuo naučiti 3 pjesme za sat književnosti.,neg,,,24,ad_measure,ad_mode + ad_measure,interrogative pronouns
,Sequence,flow.Sequence,2_9,,,,,,completion,12229.09999999404,207583.90000000596,207578.922,207595.5,219824.59999999404,219825.70000001788,2025-02-01T20:30:01.970Z,219827.5,6w7AwWxGao,incremental,jednostavno-test,679df971131ae225e46b4282,participant,hcpib7hgm6mn84ng,,,,Koliko pjesama Stepan nije stignuo naučiti za sat književnosti?,Stepan nije stignuo naučiti 3 pjesme za sat književnosti.,neg,,,24,ad_measure,ad_mode + ad_measure,interrogative pronouns
,context,canvas.Screen,2_10_0_0,,,,,,response,2138.300000011921,219826.09999999404,219810.9,219827.5,221965.80000001192,221966.70000001788,2025-02-01T20:30:04.111Z,221993.9,6w7AwWxGao,incremental,jednostavno-test,679df971131ae225e46b4282,participant,hcpib7hgm6mn84ng,,,click,Koliko piva Ivan žali što je prolio?,Ivan žali što je prolio 3 litre piva.,fac,,,33,ad_measure,ob_dir + ad_mode + ad_measure,interrogative pronouns
,Timer frame,html.Frame,2_10_0,,,,,,,2139.2000000178814,219825.80000001192,219810.9,219827.5,221966.70000001788,221966.80000001192,2025-02-01T20:30:04.111Z,221993.9,6w7AwWxGao,incremental,jednostavno-test,679df971131ae225e46b4282,participant,hcpib7hgm6mn84ng,,,,Koliko piva Ivan žali što je prolio?,Ivan žali što je prolio 3 litre piva.,fac,,,33,ad_measure,ob_dir + ad_mode + ad_measure,interrogative pronouns
,stimulus,canvas.Screen,2_10_1_0,,,,,,response,6658.800000017887,221967.09999999404,221977.4,221993.9,228652.70000001788,228653.40000000596,2025-02-01T20:30:10.798Z,228659.8,6w7AwWxGao,incremental,jednostavno-test,679df971131ae225e46b4282,participant,hcpib7hgm6mn84ng,,4,click @4,Koliko piva Ivan žali što je prolio?,Ivan žali što je prolio 3 litre piva.,fac,,,33,ad_measure,ob_dir + ad_mode + ad_measure,interrogative pronouns
,Timer frame,html.Frame,2_10_1,,,,,,,6659.600000000006,221966.80000001192,221977.4,221993.9,228653.5,228653.59999999404,2025-02-01T20:30:10.798Z,228659.8,6w7AwWxGao,incremental,jednostavno-test,679df971131ae225e46b4282,participant,hcpib7hgm6mn84ng,,,,Koliko piva Ivan žali što je prolio?,Ivan žali što je prolio 3 litre piva.,fac,,,33,ad_measure,ob_dir + ad_mode + ad_measure,interrogative pronouns
,inter-stimulus,canvas.Screen,2_10_2,,,,,,response,1265.100000005972,228653.70000001788,228643.83,228659.8,229924.90000000596,229926.59999999404,2025-02-01T20:30:12.071Z,229943,6w7AwWxGao,incremental,jednostavno-test,679df971131ae225e46b4282,participant,hcpib7hgm6mn84ng,,,mousedown,Koliko piva Ivan žali što je prolio?,Ivan žali što je prolio 3 litre piva.,fac,,,33,ad_measure,ob_dir + ad_mode + ad_measure,interrogative pronouns
,Sequence,flow.Sequence,2_10,,,,,,completion,10097.40000000596,219825.70000001788,219810.9,219827.5,229924.90000000596,229926.90000000596,2025-02-01T20:30:12.072Z,229943,6w7AwWxGao,incremental,jednostavno-test,679df971131ae225e46b4282,participant,hcpib7hgm6mn84ng,,,,Koliko piva Ivan žali što je prolio?,Ivan žali što je prolio 3 litre piva.,fac,,,33,ad_measure,ob_dir + ad_mode + ad_measure,interrogative pronouns
,context,canvas.Screen,2_11_0_0,,,,,,response,2649.2000000178814,229927.20000001788,229926.6,229943,232592.20000001788,232593.30000001192,2025-02-01T20:30:14.738Z,232609.4,6w7AwWxGao,incremental,jednostavno-test,679df971131ae225e46b4282,participant,hcpib7hgm6mn84ng,,,click,U susjednom stanu živio je čovjek kojeg sam pitao koliko mu auto troši benzina.,Pitao sam vlasnika kamioneta koliko benzina troši njegov auto.,iq,,,14,ob_dir,ob_dir + ob_indir,relative pronouns
,Timer frame,html.Frame,2_11_0,,,,,,,2650.4000000059605,229926.90000000596,229926.6,229943,232593.40000000596,232593.5,2025-02-01T20:30:14.738Z,232609.4,6w7AwWxGao,incremental,jednostavno-test,679df971131ae225e46b4282,participant,hcpib7hgm6mn84ng,,,,U susjednom stanu živio je čovjek kojeg sam pitao koliko mu auto troši benzina.,Pitao sam vlasnika kamioneta koliko benzina troši njegov auto.,iq,,,14,ob_dir,ob_dir + ob_indir,relative pronouns
,stimulus,canvas.Screen,2_11_1_0,,,,,,response,5953.400000011927,232593.70000001788,232592.9,232609.4,238562.80000001192,238563.40000000596,2025-02-01T20:30:20.708Z,238575.4,6w7AwWxGao,incremental,jednostavno-test,679df971131ae225e46b4282,participant,hcpib7hgm6mn84ng,,7,click @7,U susjednom stanu živio je čovjek kojeg sam pitao koliko mu auto troši benzina.,Pitao sam vlasnika kamioneta koliko benzina troši njegov auto.,iq,,,14,ob_dir,ob_dir + ob_indir,relative pronouns
,Timer frame,html.Frame,2_11_1,,,,,,,5954.199999994045,232593.5,232592.9,232609.4,238563.59999999404,238563.59999999404,2025-02-01T20:30:20.708Z,238575.4,6w7AwWxGao,incremental,jednostavno-test,679df971131ae225e46b4282,participant,hcpib7hgm6mn84ng,,,,U susjednom stanu živio je čovjek kojeg sam pitao koliko mu auto troši benzina.,Pitao sam vlasnika kamioneta koliko benzina troši njegov auto.,iq,,,14,ob_dir,ob_dir + ob_indir,relative pronouns
,inter-stimulus,canvas.Screen,2_11_2,,,,,,response,887.6000000000058,238563.70000001788,238558.896,238575.4,239463,239463.80000001192,2025-02-01T20:30:21.609Z,239475.3,6w7AwWxGao,incremental,jednostavno-test,679df971131ae225e46b4282,participant,hcpib7hgm6mn84ng,,,mousedown,U susjednom stanu živio je čovjek kojeg sam pitao koliko mu auto troši benzina.,Pitao sam vlasnika kamioneta koliko benzina troši njegov auto.,iq,,,14,ob_dir,ob_dir + ob_indir,relative pronouns
,Sequence,flow.Sequence,2_11,,,,,,completion,9520,229926.90000000596,229926.6,229943,239463,239464,2025-02-01T20:30:21.609Z,239475.3,6w7AwWxGao,incremental,jednostavno-test,679df971131ae225e46b4282,participant,hcpib7hgm6mn84ng,,,,U susjednom stanu živio je čovjek kojeg sam pitao koliko mu auto troši benzina.,Pitao sam vlasnika kamioneta koliko benzina troši njegov auto.,iq,,,14,ob_dir,ob_dir + ob_indir,relative pronouns
,context,canvas.Screen,2_12_0_0,,,,,,response,3023.799999994051,239464.40000000596,239458.722,239475.3,242499.09999999404,242499.90000000596,2025-02-01T20:30:24.645Z,242525,6w7AwWxGao,incremental,jednostavno-test,679df971131ae225e46b4282,participant,hcpib7hgm6mn84ng,,,click,Gdje Tvrtko neće moći provesti vikend s obitelji?,Tvrtko neće moći provesti vikend s obitelji na Bahamima.,neg,,,22,ad_place,ad_time + ad_place,interrogative pronouns
,Timer frame,html.Frame,2_12_0,,,,,,,3024.7000000000116,239464.09999999404,239458.722,239475.3,242500,242500.09999999404,2025-02-01T20:30:24.645Z,242525,6w7AwWxGao,incremental,jednostavno-test,679df971131ae225e46b4282,participant,hcpib7hgm6mn84ng,,,,Gdje Tvrtko neće moći provesti vikend s obitelji?,Tvrtko neće moći provesti vikend s obitelji na Bahamima.,neg,,,22,ad_place,ad_time + ad_place,interrogative pronouns
,stimulus,canvas.Screen,2_12_1_0,,,,,,response,3697.2000000178814,242500.30000001192,242508.516,242525,246222.20000001788,246223.09999999404,2025-02-01T20:30:28.368Z,246224.6,6w7AwWxGao,incremental,jednostavno-test,679df971131ae225e46b4282,participant,hcpib7hgm6mn84ng,,7,click @7,Gdje Tvrtko neće moći provesti vikend s obitelji?,Tvrtko neće moći provesti vikend s obitelji na Bahamima.,neg,,,22,ad_place,ad_time + ad_place,interrogative pronouns
,Timer frame,html.Frame,2_12_1,,,,,,,3698.0999999940395,242500.09999999404,242508.516,242525,246223.09999999404,246223.20000001788,2025-02-01T20:30:28.368Z,246224.6,6w7AwWxGao,incremental,jednostavno-test,679df971131ae225e46b4282,participant,hcpib7hgm6mn84ng,,,,Gdje Tvrtko neće moći provesti vikend s obitelji?,Tvrtko neće moći provesti vikend s obitelji na Bahamima.,neg,,,22,ad_place,ad_time + ad_place,interrogative pronouns
,inter-stimulus,canvas.Screen,2_12_2,,,,,,response,650.6000000178756,246223.20000001788,246208.056,246224.6,246875.20000001788,246876.09999999404,2025-02-01T20:30:29.021Z,246891.2,6w7AwWxGao,incremental,jednostavno-test,679df971131ae225e46b4282,participant,hcpib7hgm6mn84ng,,,mousedown,Gdje Tvrtko neće moći provesti vikend s obitelji?,Tvrtko neće moći provesti vikend s obitelji na Bahamima.,neg,,,22,ad_place,ad_time + ad_place,interrogative pronouns
,Sequence,flow.Sequence,2_12,,,,,,completion,7399.900000017893,239464.09999999404,239458.722,239475.3,246875.20000001788,246876.20000001788,2025-02-01T20:30:29.021Z,246891.2,6w7AwWxGao,incremental,jednostavno-test,679df971131ae225e46b4282,participant,hcpib7hgm6mn84ng,,,,Gdje Tvrtko neće moći provesti vikend s obitelji?,Tvrtko neće moći provesti vikend s obitelji na Bahamima.,neg,,,22,ad_place,ad_time + ad_place,interrogative pronouns
,context,canvas.Screen,2_13_0_0,,,,,,response,2383.700000005949,246876.5,246874.628,246891.2,249274.90000000596,249275.70000001788,2025-02-01T20:30:31.420Z,249290.9,6w7AwWxGao,incremental,jednostavno-test,679df971131ae225e46b4282,participant,hcpib7hgm6mn84ng,,,click,Došla je ta djevojka o kojoj sam pitao što je jela u restoranu.,Pitao sam što je Jasna jela u restoranu.,iq,,0,10,sub,sub + ob,relative pronouns
,Timer frame,html.Frame,2_13_0,,,,,,,2384.6000000119093,246876.30000001192,246874.628,246891.2,249275.80000001192,249275.90000000596,2025-02-01T20:30:31.421Z,249290.9,6w7AwWxGao,incremental,jednostavno-test,679df971131ae225e46b4282,participant,hcpib7hgm6mn84ng,,,,Došla je ta djevojka o kojoj sam pitao što je jela u restoranu.,Pitao sam što je Jasna jela u restoranu.,iq,,0,10,sub,sub + ob,relative pronouns
,stimulus,canvas.Screen,2_13_1_0,,,,,,response,4528.400000011927,249276.09999999404,249274.512,249290.9,253819.30000001192,253820.09999999404,2025-02-01T20:30:35.965Z,253823.9,6w7AwWxGao,incremental,jednostavno-test,679df971131ae225e46b4282,participant,hcpib7hgm6mn84ng,,2,click @2,Došla je ta djevojka o kojoj sam pitao što je jela u restoranu.,Pitao sam što je Jasna jela u restoranu.,iq,,0,10,sub,sub + ob,relative pronouns
,Timer frame,html.Frame,2_13_1,,,,,,,4529.300000017887,249276,249274.512,249290.9,253820.20000001788,253820.30000001192,2025-02-01T20:30:35.965Z,253823.9,6w7AwWxGao,incremental,jednostavno-test,679df971131ae225e46b4282,participant,hcpib7hgm6mn84ng,,,,Došla je ta djevojka o kojoj sam pitao što je jela u restoranu.,Pitao sam što je Jasna jela u restoranu.,iq,,0,10,sub,sub + ob,relative pronouns
,inter-stimulus,canvas.Screen,2_13_2,,,,,,response,709.6999999940454,253820.40000000596,253807.266,253823.9,254533.59999999404,254535.20000001788,2025-02-01T20:30:36.680Z,254556.9,6w7AwWxGao,incremental,jednostavno-test,679df971131ae225e46b4282,participant,hcpib7hgm6mn84ng,,,mousedown,Došla je ta djevojka o kojoj sam pitao što je jela u restoranu.,Pitao sam što je Jasna jela u restoranu.,iq,,0,10,sub,sub + ob,relative pronouns
,Sequence,flow.Sequence,2_13,,,,,,completion,7642.399999994028,246876.30000001192,246874.628,246891.2,254533.59999999404,254535.5,2025-02-01T20:30:36.680Z,254556.9,6w7AwWxGao,incremental,jednostavno-test,679df971131ae225e46b4282,participant,hcpib7hgm6mn84ng,,,,Došla je ta djevojka o kojoj sam pitao što je jela u restoranu.,Pitao sam što je Jasna jela u restoranu.,iq,,0,10,sub,sub + ob,relative pronouns
,context,canvas.Screen,2_14_0_0,,,,,,response,3575.0000000059663,254536,254540.366,254556.9,258131.90000000596,258133,2025-02-01T20:30:40.280Z,258139.9,6w7AwWxGao,incremental,jednostavno-test,679df971131ae225e46b4282,participant,hcpib7hgm6mn84ng,,,click,"Kada, kurir je razjasnio, što mora dostaviti?",Kurir je razjasnio što mora dostaviti sutra.,iq,0,0,7,ad,ob + ad,interrogative pronouns
,Timer frame,html.Frame,2_14_0,,,,,,,3576.300000017887,254535.70000001788,254540.366,254556.9,258133.20000001788,258133.20000001788,2025-02-01T20:30:40.281Z,258139.9,6w7AwWxGao,incremental,jednostavno-test,679df971131ae225e46b4282,participant,hcpib7hgm6mn84ng,,,,"Kada, kurir je razjasnio, što mora dostaviti?",Kurir je razjasnio što mora dostaviti sutra.,iq,0,0,7,ad,ob + ad,interrogative pronouns
,stimulus,canvas.Screen,2_14_1_0,,,,,,response,4188.800000017887,258133.5,258123.3,258139.9,262328.7000000179,262330,2025-02-01T20:30:44.477Z,262339.5,6w7AwWxGao,incremental,jednostavno-test,679df971131ae225e46b4282,participant,hcpib7hgm6mn84ng,,1,click @1,"Kada, kurir je razjasnio, što mora dostaviti?",Kurir je razjasnio što mora dostaviti sutra.,iq,0,0,7,ad,ob + ad,interrogative pronouns
,Timer frame,html.Frame,2_14_1,,,,,,,4190.199999994045,258133.20000001788,258123.3,258139.9,262330.09999999404,262330.2000000179,2025-02-01T20:30:44.478Z,262339.5,6w7AwWxGao,incremental,jednostavno-test,679df971131ae225e46b4282,participant,hcpib7hgm6mn84ng,,,,"Kada, kurir je razjasnio, što mora dostaviti?",Kurir je razjasnio što mora dostaviti sutra.,iq,0,0,7,ad,ob + ad,interrogative pronouns
,inter-stimulus,canvas.Screen,2_14_2,,,,,,response,503.90000000596046,262330.2000000179,262322.926,262339.5,262843.40000000596,262844.2000000179,2025-02-01T20:30:44.992Z,262872.7,6w7AwWxGao,incremental,jednostavno-test,679df971131ae225e46b4282,participant,hcpib7hgm6mn84ng,,,mousedown,"Kada, kurir je razjasnio, što mora dostaviti?",Kurir je razjasnio što mora dostaviti sutra.,iq,0,0,7,ad,ob + ad,interrogative pronouns
,Sequence,flow.Sequence,2_14,,,,,,completion,8286.500000005966,254535.59999999404,254540.366,254556.9,262843.40000000596,262844.40000000596,2025-02-01T20:30:44.992Z,262872.7,6w7AwWxGao,incremental,jednostavno-test,679df971131ae225e46b4282,participant,hcpib7hgm6mn84ng,,,,"Kada, kurir je razjasnio, što mora dostaviti?",Kurir je razjasnio što mora dostaviti sutra.,iq,0,0,7,ad,ob + ad,interrogative pronouns
,context,canvas.Screen,2_15_0_0,,,,,,response,3889.6000000119093,262844.7000000179,262856.198,262872.7,266762.3000000119,266763.09999999404,2025-02-01T20:30:48.911Z,266772.4,6w7AwWxGao,incremental,jednostavno-test,679df971131ae225e46b4282,participant,hcpib7hgm6mn84ng,,,click,Kada Slavko ide u SAD na work and travel program?,Na ljeto Slavko ide u USA na work and travel program.,iq,0,0,9,ad,ad + ad,interrogative pronouns
,Timer frame,html.Frame,2_15_0,,,,,,,3890.6000000119093,262844.40000000596,262856.198,262872.7,266763.3000000119,266763.40000000596,2025-02-01T20:30:48.911Z,266772.4,6w7AwWxGao,incremental,jednostavno-test,679df971131ae225e46b4282,participant,hcpib7hgm6mn84ng,,,,Kada Slavko ide u SAD na work and travel program?,Na ljeto Slavko ide u USA na work and travel program.,iq,0,0,9,ad,ad + ad,interrogative pronouns
,stimulus,canvas.Screen,2_15_1_0,,,,,,response,7593.900000011898,266763.8000000119,266756.334,266772.4,274366.3000000119,274367,2025-02-01T20:30:56.514Z,274388.2,6w7AwWxGao,incremental,jednostavno-test,679df971131ae225e46b4282,participant,hcpib7hgm6mn84ng,,6,click @6,Kada Slavko ide u SAD na work and travel program?,Na ljeto Slavko ide u USA na work and travel program.,iq,0,0,9,ad,ad + ad,interrogative pronouns
,Timer frame,html.Frame,2_15_1,,,,,,,7594.699999994016,266763.5,266756.334,266772.4,274367.09999999404,274367.3000000119,2025-02-01T20:30:56.515Z,274388.2,6w7AwWxGao,incremental,jednostavno-test,679df971131ae225e46b4282,participant,hcpib7hgm6mn84ng,,,,Kada Slavko ide u SAD na work and travel program?,Na ljeto Slavko ide u USA na work and travel program.,iq,0,0,9,ad,ad + ad,interrogative pronouns
,inter-stimulus,canvas.Screen,2_15_2,,,,,,response,798.3999999940279,274367.3000000119,274371.662,274388.2,275186.59999999404,275187.90000000596,2025-02-01T20:30:57.335Z,275204.9,6w7AwWxGao,incremental,jednostavno-test,679df971131ae225e46b4282,participant,hcpib7hgm6mn84ng,,,mousedown,Kada Slavko ide u SAD na work and travel program?,Na ljeto Slavko ide u USA na work and travel program.,iq,0,0,9,ad,ad + ad,interrogative pronouns
,Sequence,flow.Sequence,2_15,,,,,,completion,12313.899999994028,262844.40000000596,262856.198,262872.7,275186.59999999404,275188.2000000179,2025-02-01T20:30:57.336Z,275204.9,6w7AwWxGao,incremental,jednostavno-test,679df971131ae225e46b4282,participant,hcpib7hgm6mn84ng,,,,Kada Slavko ide u SAD na work and travel program?,Na ljeto Slavko ide u USA na work and travel program.,iq,0,0,9,ad,ad + ad,interrogative pronouns
,context,canvas.Screen,2_16_0_0,,,,,,response,3823.1999999940163,275188.5,275188.258,275204.9,279028.09999999404,279029.2000000179,2025-02-01T20:31:01.177Z,279054.5,6w7AwWxGao,incremental,jednostavno-test,679df971131ae225e46b4282,participant,hcpib7hgm6mn84ng,,,click,Kakvog koga primijetila sam otkud se vraćajući na krovu čega?,Vraćajući se iz apoteke primijetila sam malog mačića na krovu auta.,nf,,,52,filler,filler,filler
,Timer frame,html.Frame,2_16_0,,,,,,,3824.500000005937,275188.3000000119,275188.258,275204.9,279029.40000000596,279029.40000000596,2025-02-01T20:31:01.177Z,279054.5,6w7AwWxGao,incremental,jednostavno-test,679df971131ae225e46b4282,participant,hcpib7hgm6mn84ng,,,,Kakvog koga primijetila sam otkud se vraćajući na krovu čega?,Vraćajući se iz apoteke primijetila sam malog mačića na krovu auta.,nf,,,52,filler,filler,filler
,stimulus,canvas.Screen,2_16_1_0,,,,,,response,3609.5,279029.8000000119,279037.7,279054.5,282664,282664.8000000119,2025-02-01T20:31:04.812Z,282687.2,6w7AwWxGao,incremental,jednostavno-test,679df971131ae225e46b4282,participant,hcpib7hgm6mn84ng,,1,click @1,Kakvog koga primijetila sam otkud se vraćajući na krovu čega?,Vraćajući se iz apoteke primijetila sam malog mačića na krovu auta.,nf,,,52,filler,filler,filler
,Timer frame,html.Frame,2_16_1,,,,,,,3610.4000000059605,279029.59999999404,279037.7,279054.5,282664.90000000596,282665,2025-02-01T20:31:04.812Z,282687.2,6w7AwWxGao,incremental,jednostavno-test,679df971131ae225e46b4282,participant,hcpib7hgm6mn84ng,,,,Kakvog koga primijetila sam otkud se vraćajući na krovu čega?,Vraćajući se iz apoteke primijetila sam malog mačića na krovu auta.,nf,,,52,filler,filler,filler
,inter-stimulus,canvas.Screen,2_16_2,,,,,,response,551.6000000119093,282665.09999999404,282670.662,282687.2,283238.8000000119,283239.7000000179,2025-02-01T20:31:05.387Z,283253.9,6w7AwWxGao,incremental,jednostavno-test,679df971131ae225e46b4282,participant,hcpib7hgm6mn84ng,,,mousedown,Kakvog koga primijetila sam otkud se vraćajući na krovu čega?,Vraćajući se iz apoteke primijetila sam malog mačića na krovu auta.,nf,,,52,filler,filler,filler
,Sequence,flow.Sequence,2_16,,,,,,completion,8033.900000011898,275188.3000000119,275188.258,275204.9,283238.8000000119,283239.8000000119,2025-02-01T20:31:05.387Z,283253.9,6w7AwWxGao,incremental,jednostavno-test,679df971131ae225e46b4282,participant,hcpib7hgm6mn84ng,,,,Kakvog koga primijetila sam otkud se vraćajući na krovu čega?,Vraćajući se iz apoteke primijetila sam malog mačića na krovu auta.,nf,,,52,filler,filler,filler
,context,canvas.Screen,2_17_0_0,,,,,,response,3185.000000005937,283240.2000000179,283237.332,283253.9,286438.90000000596,286439.7000000179,2025-02-01T20:31:08.587Z,286453.5,6w7AwWxGao,incremental,jednostavno-test,679df971131ae225e46b4282,participant,hcpib7hgm6mn84ng,,,click,Koliko slonova Ivo je rekao da je vidio na safariju?,Ivo je rekao da je vidio dva slona na safariju.,fac,,,36,ad_measure,ob_dir + ad_mode + ad_measure,interrogative pronouns
,Timer frame,html.Frame,2_17_0,,,,,,,3186.000000005937,283239.90000000596,283237.332,283253.9,286439.90000000596,286440,2025-02-01T20:31:08.587Z,286453.5,6w7AwWxGao,incremental,jednostavno-test,679df971131ae225e46b4282,participant,hcpib7hgm6mn84ng,,,,Koliko slonova Ivo je rekao da je vidio na safariju?,Ivo je rekao da je vidio dva slona na safariju.,fac,,,36,ad_measure,ob_dir + ad_mode + ad_measure,interrogative pronouns
,stimulus,canvas.Screen,2_17_1_0,,,,,,response,8736.5,286440.2000000179,286436.926,286453.5,295190,295190.8000000119,2025-02-01T20:31:17.338Z,295219.1,6w7AwWxGao,incremental,jednostavno-test,679df971131ae225e46b4282,participant,hcpib7hgm6mn84ng,,2,click @2,Koliko slonova Ivo je rekao da je vidio na safariju?,Ivo je rekao da je vidio dva slona na safariju.,fac,,,36,ad_measure,ob_dir + ad_mode + ad_measure,interrogative pronouns
,Timer frame,html.Frame,2_17_1,,,,,,,8737.40000000596,286440,286436.926,286453.5,295190.90000000596,295191,2025-02-01T20:31:17.338Z,295219.1,6w7AwWxGao,incremental,jednostavno-test,679df971131ae225e46b4282,participant,hcpib7hgm6mn84ng,,,,Koliko slonova Ivo je rekao da je vidio na safariju?,Ivo je rekao da je vidio dva slona na safariju.,fac,,,36,ad_measure,ob_dir + ad_mode + ad_measure,interrogative pronouns
,inter-stimulus,canvas.Screen,2_17_2,,,,,,response,676.7000000119442,295191.09999999404,295202.7,295219.1,295895.8000000119,295896.5,2025-02-01T20:31:18.044Z,295902.4,6w7AwWxGao,incremental,jednostavno-test,679df971131ae225e46b4282,participant,hcpib7hgm6mn84ng,,,mousedown,Koliko slonova Ivo je rekao da je vidio na safariju?,Ivo je rekao da je vidio dva slona na safariju.,fac,,,36,ad_measure,ob_dir + ad_mode + ad_measure,interrogative pronouns
,Sequence,flow.Sequence,2_17,,,,,,completion,12641.900000011898,283239.8000000119,283237.332,283253.9,295895.8000000119,295896.7000000179,2025-02-01T20:31:18.044Z,295902.4,6w7AwWxGao,incremental,jednostavno-test,679df971131ae225e46b4282,participant,hcpib7hgm6mn84ng,,,,Koliko slonova Ivo je rekao da je vidio na safariju?,Ivo je rekao da je vidio dva slona na safariju.,fac,,,36,ad_measure,ob_dir + ad_mode + ad_measure,interrogative pronouns
,context,canvas.Screen,2_18_0_0,,,,,,response,3434.300000017858,295897,295885.96,295902.4,299336.7000000179,299337.3000000119,2025-02-01T20:31:21.485Z,299352.1,6w7AwWxGao,incremental,jednostavno-test,679df971131ae225e46b4282,participant,hcpib7hgm6mn84ng,,,click,"Što, Perići znaju, da je Petar kupio na tržnici?",Perići znaju da je Petar kupio sat na tržnici.,fac,,,37,ob,ob + ad_mode,interrogative pronouns
,Timer frame,html.Frame,2_18_0,,,,,,,3435.000000005937,295896.8000000119,295885.96,295902.4,299337.40000000596,299337.5,2025-02-01T20:31:21.485Z,299352.1,6w7AwWxGao,incremental,jednostavno-test,679df971131ae225e46b4282,participant,hcpib7hgm6mn84ng,,,,"Što, Perići znaju, da je Petar kupio na tržnici?",Perići znaju da je Petar kupio sat na tržnici.,fac,,,37,ob,ob + ad_mode,interrogative pronouns
,stimulus,canvas.Screen,2_18_1_0,,,,,,response,5715.400000000023,299337.7000000179,299335.516,299352.1,305067.5,305068.3000000119,2025-02-01T20:31:27.216Z,305084.8,6w7AwWxGao,incremental,jednostavno-test,679df971131ae225e46b4282,participant,hcpib7hgm6mn84ng,,1,click @1,"Što, Perići znaju, da je Petar kupio na tržnici?",Perići znaju da je Petar kupio sat na tržnici.,fac,,,37,ob,ob + ad_mode,interrogative pronouns
,Timer frame,html.Frame,2_18_1,,,,,,,5716.300000005984,299337.5,299335.516,299352.1,305068.40000000596,305068.5,2025-02-01T20:31:27.216Z,305084.8,6w7AwWxGao,incremental,jednostavno-test,679df971131ae225e46b4282,participant,hcpib7hgm6mn84ng,,,,"Što, Perići znaju, da je Petar kupio na tržnici?",Perići znaju da je Petar kupio sat na tržnici.,fac,,,37,ob,ob + ad_mode,interrogative pronouns
,inter-stimulus,canvas.Screen,2_18_2,,,,,,response,437.70000000001164,305068.59999999404,305068.228,305084.8,305522.5,305523.8000000119,2025-02-01T20:31:27.671Z,305551.5,6w7AwWxGao,incremental,jednostavno-test,679df971131ae225e46b4282,participant,hcpib7hgm6mn84ng,,,mousedown,"Što, Perići znaju, da je Petar kupio na tržnici?",Perići znaju da je Petar kupio sat na tržnici.,fac,,,37,ob,ob + ad_mode,interrogative pronouns
,Sequence,flow.Sequence,2_18,,,,,,completion,9620.099999999977,295896.7000000179,295885.96,295902.4,305522.5,305524,2025-02-01T20:31:27.671Z,305551.5,6w7AwWxGao,incremental,jednostavno-test,679df971131ae225e46b4282,participant,hcpib7hgm6mn84ng,,,,"Što, Perići znaju, da je Petar kupio na tržnici?",Perići znaju da je Petar kupio sat na tržnici.,fac,,,37,ob,ob + ad_mode,interrogative pronouns
,context,canvas.Screen,2_19_0_0,,,,,,response,1623.5999999940395,305524.40000000596,305534.8,305551.5,307175.09999999404,307175.7000000179,2025-02-01T20:31:29.323Z,307184.5,6w7AwWxGao,incremental,jednostavno-test,679df971131ae225e46b4282,participant,hcpib7hgm6mn84ng,,,click,Majka je primijetila da se Slobodan vratio kući.,Slobodan se vratio kući.,gf,0,0,44,filler,filler,filler
,Timer frame,html.Frame,2_19_0,,,,,,,1624.4000000059605,305524.09999999404,305534.8,305551.5,307175.90000000596,307175.90000000596,2025-02-01T20:31:29.323Z,307184.5,6w7AwWxGao,incremental,jednostavno-test,679df971131ae225e46b4282,participant,hcpib7hgm6mn84ng,,,,Majka je primijetila da se Slobodan vratio kući.,Slobodan se vratio kući.,gf,0,0,44,filler,filler,filler
,stimulus,canvas.Screen,2_19_1_0,,,,,,response,3809.0999999940395,307176.09999999404,307168.102,307184.5,310993.59999999404,310994.3000000119,2025-02-01T20:31:33.142Z,311000.8,6w7AwWxGao,incremental,jednostavno-test,679df971131ae225e46b4282,participant,hcpib7hgm6mn84ng,,7,click @7,Majka je primijetila da se Slobodan vratio kući.,Slobodan se vratio kući.,gf,0,0,44,filler,filler,filler
,Timer frame,html.Frame,2_19_1,,,,,,,3809.9000000059605,307176,307168.102,307184.5,310994.40000000596,310994.5,2025-02-01T20:31:33.142Z,311000.8,6w7AwWxGao,incremental,jednostavno-test,679df971131ae225e46b4282,participant,hcpib7hgm6mn84ng,,,,Majka je primijetila da se Slobodan vratio kući.,Slobodan se vratio kući.,gf,0,0,44,filler,filler,filler
,inter-stimulus,canvas.Screen,2_19_2,,,,,,response,419.90000001789303,310994.59999999404,310984.262,311000.8,311420.7000000179,311421.40000000596,2025-02-01T20:31:33.569Z,311434.1,6w7AwWxGao,incremental,jednostavno-test,679df971131ae225e46b4282,participant,hcpib7hgm6mn84ng,,,mousedown,Majka je primijetila da se Slobodan vratio kući.,Slobodan se vratio kući.,gf,0,0,44,filler,filler,filler
,Sequence,flow.Sequence,2_19,,,,,,completion,5869.200000017881,305524.09999999404,305534.8,305551.5,311420.7000000179,311421.59999999404,2025-02-01T20:31:33.569Z,311434.1,6w7AwWxGao,incremental,jednostavno-test,679df971131ae225e46b4282,participant,hcpib7hgm6mn84ng,,,,Majka je primijetila da se Slobodan vratio kući.,Slobodan se vratio kući.,gf,0,0,44,filler,filler,filler
,context,canvas.Screen,2_20_0_0,,,,,,response,1621.9999999940628,311422,311417.532,311434.1,313056.09999999404,313056.90000000596,2025-02-01T20:31:35.204Z,313083.9,6w7AwWxGao,incremental,jednostavno-test,679df971131ae225e46b4282,participant,hcpib7hgm6mn84ng,,,click,Nego volim pivo više vino.,Više volim vino nego pivo.,nf,,,56,filler,filler,filler
,Timer frame,html.Frame,2_20_0,,,,,,,1622.8000000059837,311421.7000000179,311417.532,311434.1,313056.90000000596,313057,2025-02-01T20:31:35.204Z,313083.9,6w7AwWxGao,incremental,jednostavno-test,679df971131ae225e46b4282,participant,hcpib7hgm6mn84ng,,,,Nego volim pivo više vino.,Više volim vino nego pivo.,nf,,,56,filler,filler,filler
,stimulus,canvas.Screen,2_20_1_0,,,,,,response,2914.300000017858,313057.3000000119,313067.472,313083.9,315998.2000000179,315999,2025-02-01T20:31:38.146Z,316016.9,6w7AwWxGao,incremental,jednostavno-test,679df971131ae225e46b4282,participant,hcpib7hgm6mn84ng,,1,click @1,Nego volim pivo više vino.,Više volim vino nego pivo.,nf,,,56,filler,filler,filler
,Timer frame,html.Frame,2_20_1,,,,,,,2915.1999999940163,313057.09999999404,313067.472,313083.9,315999.09999999404,315999.2000000179,2025-02-01T20:31:38.147Z,316016.9,6w7AwWxGao,incremental,jednostavno-test,679df971131ae225e46b4282,participant,hcpib7hgm6mn84ng,,,,Nego volim pivo više vino.,Više volim vino nego pivo.,nf,,,56,filler,filler,filler
,inter-stimulus,canvas.Screen,2_20_2,,,,,,response,416.19999999401625,315999.2000000179,316000.396,316016.9,316433.09999999404,316433.8000000119,2025-02-01T20:31:38.581Z,316466.9,6w7AwWxGao,incremental,jednostavno-test,679df971131ae225e46b4282,participant,hcpib7hgm6mn84ng,,,mousedown,Nego volim pivo više vino.,Više volim vino nego pivo.,nf,,,56,filler,filler,filler
,Sequence,flow.Sequence,2_20,,,,,,completion,4998.999999994063,311421.59999999404,311417.532,311434.1,316433.09999999404,316434,2025-02-01T20:31:38.581Z,316466.9,6w7AwWxGao,incremental,jednostavno-test,679df971131ae225e46b4282,participant,hcpib7hgm6mn84ng,,,,Nego volim pivo više vino.,Više volim vino nego pivo.,nf,,,56,filler,filler,filler
,context,canvas.Screen,2_21_0_0,,,,,,response,5290.400000011898,316434.3000000119,316450.326,316466.9,321757.3000000119,321758,2025-02-01T20:31:43.908Z,321766.3,6w7AwWxGao,incremental,jednostavno-test,679df971131ae225e46b4282,participant,hcpib7hgm6mn84ng,,,click,Sutra Stepan će naučiti toliko pjesama koliko nije stignuo naučiti jučer za sat književnosti.,Stepan nije stignuo naučiti 3 pjesme za sat književnosti.,neg,,,30,ad_measure,ad_mode + ad_measure,relative pronouns
,Timer frame,html.Frame,2_21_0,,,,,,,5291.199999994016,316434.09999999404,316450.326,316466.9,321758.09999999404,321758.09999999404,2025-02-01T20:31:43.908Z,321766.3,6w7AwWxGao,incremental,jednostavno-test,679df971131ae225e46b4282,participant,hcpib7hgm6mn84ng,,,,Sutra Stepan će naučiti toliko pjesama koliko nije stignuo naučiti jučer za sat književnosti.,Stepan nije stignuo naučiti 3 pjesme za sat književnosti.,neg,,,30,ad_measure,ad_mode + ad_measure,relative pronouns
,stimulus,canvas.Screen,2_21_1_0,,,,,,response,6426.500000011933,321758.40000000596,321749.792,321766.3,328192.8000000119,328193.7000000179,2025-02-01T20:31:50.344Z,328215.5,6w7AwWxGao,incremental,jednostavno-test,679df971131ae225e46b4282,participant,hcpib7hgm6mn84ng,,1,click @1,Sutra Stepan će naučiti toliko pjesama koliko nije stignuo naučiti jučer za sat književnosti.,Stepan nije stignuo naučiti 3 pjesme za sat književnosti.,neg,,,30,ad_measure,ad_mode + ad_measure,relative pronouns
,Timer frame,html.Frame,2_21_1,,,,,,,6427.500000011933,321758.2000000179,321749.792,321766.3,328193.8000000119,328193.90000000596,2025-02-01T20:31:50.344Z,328215.5,6w7AwWxGao,incremental,jednostavno-test,679df971131ae225e46b4282,participant,hcpib7hgm6mn84ng,,,,Sutra Stepan će naučiti toliko pjesama koliko nije stignuo naučiti jučer za sat književnosti.,Stepan nije stignuo naučiti 3 pjesme za sat književnosti.,neg,,,30,ad_measure,ad_mode + ad_measure,relative pronouns
,inter-stimulus,canvas.Screen,2_21_2,,,,,,response,437.80000001192093,328194,328199.016,328215.5,328653.3000000119,328654.09999999404,2025-02-01T20:31:50.804Z,328682.1,6w7AwWxGao,incremental,jednostavno-test,679df971131ae225e46b4282,participant,hcpib7hgm6mn84ng,,,mousedown,Sutra Stepan će naučiti toliko pjesama koliko nije stignuo naučiti jučer za sat književnosti.,Stepan nije stignuo naučiti 3 pjesme za sat književnosti.,neg,,,30,ad_measure,ad_mode + ad_measure,relative pronouns
,Sequence,flow.Sequence,2_21,,,,,,completion,12186.400000011898,316434,316450.326,316466.9,328653.3000000119,328654.3000000119,2025-02-01T20:31:50.804Z,328682.1,6w7AwWxGao,incremental,jednostavno-test,679df971131ae225e46b4282,participant,hcpib7hgm6mn84ng,,,,Sutra Stepan će naučiti toliko pjesama koliko nije stignuo naučiti jučer za sat književnosti.,Stepan nije stignuo naučiti 3 pjesme za sat književnosti.,neg,,,30,ad_measure,ad_mode + ad_measure,relative pronouns
,context,canvas.Screen,2_22_0_0,,,,,,response,1998.9000000000233,328654.59999999404,328666.1,328682.1,330681,330681.7000000179,2025-02-01T20:31:52.832Z,330698.6,6w7AwWxGao,incremental,jednostavno-test,679df971131ae225e46b4282,participant,hcpib7hgm6mn84ng,,,click,Kome smo poklonili novi bicikl?,Dobrom poštaru poklonili smo novi bicikl.,gf,,0,48,filler,filler,filler
,Timer frame,html.Frame,2_22_0,,,,,,,1999.8000000059837,328654.3000000119,328666.1,328682.1,330681.90000000596,330682,2025-02-01T20:31:52.832Z,330698.6,6w7AwWxGao,incremental,jednostavno-test,679df971131ae225e46b4282,participant,hcpib7hgm6mn84ng,,,,Kome smo poklonili novi bicikl?,Dobrom poštaru poklonili smo novi bicikl.,gf,,0,48,filler,filler,filler
,stimulus,canvas.Screen,2_22_1_0,,,,,,response,3051.9000000000233,330682.2000000179,330682.8,330698.6,333750.5,333751.09999999404,2025-02-01T20:31:55.901Z,333765,6w7AwWxGao,incremental,jednostavno-test,679df971131ae225e46b4282,participant,hcpib7hgm6mn84ng,,7,click @7,Kome smo poklonili novi bicikl?,Dobrom poštaru poklonili smo novi bicikl.,gf,,0,48,filler,filler,filler
,Timer frame,html.Frame,2_22_1,,,,,,,3052.700000011944,330682.09999999404,330682.8,330698.6,333751.3000000119,333751.40000000596,2025-02-01T20:31:55.901Z,333765,6w7AwWxGao,incremental,jednostavno-test,679df971131ae225e46b4282,participant,hcpib7hgm6mn84ng,,,,Kome smo poklonili novi bicikl?,Dobrom poštaru poklonili smo novi bicikl.,gf,,0,48,filler,filler,filler
,inter-stimulus,canvas.Screen,2_22_2,,,,,,response,455.5,333751.5,333748.43,333765,334220.5,334221.5,2025-02-01T20:31:56.372Z,334248.2,6w7AwWxGao,incremental,jednostavno-test,679df971131ae225e46b4282,participant,hcpib7hgm6mn84ng,,,mousedown,Kome smo poklonili novi bicikl?,Dobrom poštaru poklonili smo novi bicikl.,gf,,0,48,filler,filler,filler
,Sequence,flow.Sequence,2_22,,,,,,completion,5538.400000000023,328654.3000000119,328666.1,328682.1,334220.5,334221.8000000119,2025-02-01T20:31:56.372Z,334248.2,6w7AwWxGao,incremental,jednostavno-test,679df971131ae225e46b4282,participant,hcpib7hgm6mn84ng,,,,Kome smo poklonili novi bicikl?,Dobrom poštaru poklonili smo novi bicikl.,gf,,0,48,filler,filler,filler
,context,canvas.Screen,2_23_0_0,,,,,,response,1492.5000000178698,334222,334231.664,334248.2,335740.7000000179,335741.40000000596,2025-02-01T20:31:57.892Z,335748,6w7AwWxGao,incremental,jednostavno-test,679df971131ae225e46b4282,participant,hcpib7hgm6mn84ng,,,click,Gdje je djeca?,Moj mlađi brat i sestra su bili u dvorištu.,nf,,,55,filler,filler,filler
,Timer frame,html.Frame,2_23_0,,,,,,,1493.2999999999884,334221.8000000119,334231.664,334248.2,335741.5,335741.59999999404,2025-02-01T20:31:57.892Z,335748,6w7AwWxGao,incremental,jednostavno-test,679df971131ae225e46b4282,participant,hcpib7hgm6mn84ng,,,,Gdje je djeca?,Moj mlađi brat i sestra su bili u dvorištu.,nf,,,55,filler,filler,filler
,stimulus,canvas.Screen,2_23_1_0,,,,,,response,3698.300000011921,335741.90000000596,335731.5,335748,339446.3000000119,339447.09999999404,2025-02-01T20:32:01.597Z,339464.4,6w7AwWxGao,incremental,jednostavno-test,679df971131ae225e46b4282,participant,hcpib7hgm6mn84ng,,1,click @1,Gdje je djeca?,Moj mlađi brat i sestra su bili u dvorištu.,nf,,,55,filler,filler,filler
,Timer frame,html.Frame,2_23_1,,,,,,,3699.2000000178814,335741.7000000179,335731.5,335748,339447.2000000179,339447.2000000179,2025-02-01T20:32:01.597Z,339464.4,6w7AwWxGao,incremental,jednostavno-test,679df971131ae225e46b4282,participant,hcpib7hgm6mn84ng,,,,Gdje je djeca?,Moj mlađi brat i sestra su bili u dvorištu.,nf,,,55,filler,filler,filler
,inter-stimulus,canvas.Screen,2_23_2,,,,,,response,528.0000000059372,339447.3000000119,339447.796,339464.4,339992.40000000596,339993.5,2025-02-01T20:32:02.144Z,340014.2,6w7AwWxGao,incremental,jednostavno-test,679df971131ae225e46b4282,participant,hcpib7hgm6mn84ng,,,mousedown,Gdje je djeca?,Moj mlađi brat i sestra su bili u dvorištu.,nf,,,55,filler,filler,filler
,Sequence,flow.Sequence,2_23,,,,,,completion,5744.200000005949,334221.8000000119,334231.664,334248.2,339992.40000000596,339993.7000000179,2025-02-01T20:32:02.144Z,340014.2,6w7AwWxGao,incremental,jednostavno-test,679df971131ae225e46b4282,participant,hcpib7hgm6mn84ng,,,,Gdje je djeca?,Moj mlađi brat i sestra su bili u dvorištu.,nf,,,55,filler,filler,filler
,context,canvas.Screen,2_24_0_0,,,,,,response,4394.200000005949,339994,339997.712,340014.2,344408.40000000596,344409.7000000179,2025-02-01T20:32:06.560Z,344430.6,6w7AwWxGao,incremental,jednostavno-test,679df971131ae225e46b4282,participant,hcpib7hgm6mn84ng,,,click,Naručio sam to jelo koje sam pitao tko je jeo u restoranu.,Pitao sam tko je jeo pleskavicu u restoranu.,iq,0,0,11,ob,sub + ob,relative pronouns
,Timer frame,html.Frame,2_24_0,,,,,,,4395.600000011909,339993.90000000596,339997.712,340014.2,344409.8000000119,344409.8000000119,2025-02-01T20:32:06.560Z,344430.6,6w7AwWxGao,incremental,jednostavno-test,679df971131ae225e46b4282,participant,hcpib7hgm6mn84ng,,,,Naručio sam to jelo koje sam pitao tko je jeo u restoranu.,Pitao sam tko je jeo pleskavicu u restoranu.,iq,0,0,11,ob,sub + ob,relative pronouns
,stimulus,canvas.Screen,2_24_1_0,,,,,,response,3908.8000000059837,344410,344414.7,344430.6,348339.40000000596,348340.2000000179,2025-02-01T20:32:10.490Z,348346.7,6w7AwWxGao,incremental,jednostavno-test,679df971131ae225e46b4282,participant,hcpib7hgm6mn84ng,,1,click @1,Naručio sam to jelo koje sam pitao tko je jeo u restoranu.,Pitao sam tko je jeo pleskavicu u restoranu.,iq,0,0,11,ob,sub + ob,relative pronouns
,Timer frame,html.Frame,2_24_1,,,,,,,3909.6000000179047,344409.90000000596,344414.7,344430.6,348340.2000000179,348340.3000000119,2025-02-01T20:32:10.490Z,348346.7,6w7AwWxGao,incremental,jednostavno-test,679df971131ae225e46b4282,participant,hcpib7hgm6mn84ng,,,,Naručio sam to jelo koje sam pitao tko je jeo u restoranu.,Pitao sam tko je jeo pleskavicu u restoranu.,iq,0,0,11,ob,sub + ob,relative pronouns
,inter-stimulus,canvas.Screen,2_24_2,,,,,,response,384.29999999998836,348340.40000000596,348330.1,348346.7,348731,348732.3000000119,2025-02-01T20:32:10.882Z,348763.3,6w7AwWxGao,incremental,jednostavno-test,679df971131ae225e46b4282,participant,hcpib7hgm6mn84ng,,,mousedown,Naručio sam to jelo koje sam pitao tko je jeo u restoranu.,Pitao sam tko je jeo pleskavicu u restoranu.,iq,0,0,11,ob,sub + ob,relative pronouns
,Sequence,flow.Sequence,2_24,,,,,,completion,8716.799999999988,339993.8000000119,339997.712,340014.2,348731,348732.5,2025-02-01T20:32:10.883Z,348763.3,6w7AwWxGao,incremental,jednostavno-test,679df971131ae225e46b4282,participant,hcpib7hgm6mn84ng,,,,Naručio sam to jelo koje sam pitao tko je jeo u restoranu.,Pitao sam tko je jeo pleskavicu u restoranu.,iq,0,0,11,ob,sub + ob,relative pronouns
,context,canvas.Screen,2_25_0_0,,,,,,response,4645.799999994051,348732.90000000596,348746.792,348763.3,353409.09999999404,353409.7000000179,2025-02-01T20:32:15.560Z,353412.8,6w7AwWxGao,incremental,jednostavno-test,679df971131ae225e46b4282,participant,hcpib7hgm6mn84ng,,,click,"Kako, Klara milsi, da se Petar tog dana vozio kući?",Klara misli da se Petar tog dana vrlo brzo vozio kući.,fac,,,40,ad_mode,ob + ad_mode,interrogative pronouns
,Timer frame,html.Frame,2_25_0,,,,,,,4646.500000011933,348732.7000000179,348746.792,348763.3,353409.8000000119,353409.90000000596,2025-02-01T20:32:15.560Z,353412.8,6w7AwWxGao,incremental,jednostavno-test,679df971131ae225e46b4282,participant,hcpib7hgm6mn84ng,,,,"Kako, Klara milsi, da se Petar tog dana vozio kući?",Klara misli da se Petar tog dana vrlo brzo vozio kući.,fac,,,40,ad_mode,ob + ad_mode,interrogative pronouns
,stimulus,canvas.Screen,2_25_1_0,,,,,,response,7612.600000005972,353410.09999999404,353397.024,353412.8,361025.40000000596,361026.59999999404,2025-02-01T20:32:23.177Z,361045.6,6w7AwWxGao,incremental,jednostavno-test,679df971131ae225e46b4282,participant,hcpib7hgm6mn84ng,,6,click @6,"Kako, Klara milsi, da se Petar tog dana vozio kući?",Klara misli da se Petar tog dana vrlo brzo vozio kući.,fac,,,40,ad_mode,ob + ad_mode,interrogative pronouns
,Timer frame,html.Frame,2_25_1,,,,,,,7614.000000011933,353409.90000000596,353397.024,353412.8,361026.8000000119,361026.90000000596,2025-02-01T20:32:23.177Z,361045.6,6w7AwWxGao,incremental,jednostavno-test,679df971131ae225e46b4282,participant,hcpib7hgm6mn84ng,,,,"Kako, Klara milsi, da se Petar tog dana vozio kući?",Klara misli da se Petar tog dana vrlo brzo vozio kući.,fac,,,40,ad_mode,ob + ad_mode,interrogative pronouns
,inter-stimulus,canvas.Screen,2_25_2,,,,,,response,562.3000000059837,361027,361029.796,361045.6,361607.90000000596,361609.2000000179,2025-02-01T20:32:23.759Z,361611.962,6w7AwWxGao,incremental,jednostavno-test,679df971131ae225e46b4282,participant,hcpib7hgm6mn84ng,,,mousedown,"Kako, Klara milsi, da se Petar tog dana vozio kući?",Klara misli da se Petar tog dana vrlo brzo vozio kući.,fac,,,40,ad_mode,ob + ad_mode,interrogative pronouns
,Sequence,flow.Sequence,2_25,,,,,,completion,12844.600000005972,348732.7000000179,348746.792,348763.3,361607.90000000596,361609.90000000596,2025-02-01T20:32:23.760Z,361611.962,6w7AwWxGao,incremental,jednostavno-test,679df971131ae225e46b4282,participant,hcpib7hgm6mn84ng,,,,"Kako, Klara milsi, da se Petar tog dana vozio kući?",Klara misli da se Petar tog dana vrlo brzo vozio kući.,fac,,,40,ad_mode,ob + ad_mode,interrogative pronouns
,context,canvas.Screen,2_26_0_0,,,,,,response,2327.8380000119214,361610.7000000179,361611.962,361611.962,363939.8000000119,363941.2000000179,2025-02-01T20:32:26.091Z,363945,6w7AwWxGao,incremental,jednostavno-test,679df971131ae225e46b4282,participant,hcpib7hgm6mn84ng,,,click,Izišao sam iz tog stana u kojem sam pitao što je Anton ostavio.,Pitao sam Antona što je ostavio u mom stanu.,iq,0,0,17,ad,ob + ad,relative pronouns
,Timer frame,html.Frame,2_26_0,,,,,,,2329.438000005961,361610.3000000119,361611.962,361611.962,363941.40000000596,363941.40000000596,2025-02-01T20:32:26.092Z,363945,6w7AwWxGao,incremental,jednostavno-test,679df971131ae225e46b4282,participant,hcpib7hgm6mn84ng,,,,Izišao sam iz tog stana u kojem sam pitao što je Anton ostavio.,Pitao sam Antona što je ostavio u mom stanu.,iq,0,0,17,ad,ob + ad,relative pronouns
,stimulus,canvas.Screen,2_26_1_0,,,,,,response,8278.09999999404,363941.7000000179,363928.658,363945,372223.09999999404,372223.90000000596,2025-02-01T20:32:34.374Z,372227.4,6w7AwWxGao,incremental,jednostavno-test,679df971131ae225e46b4282,participant,hcpib7hgm6mn84ng,,5,click @5,Izišao sam iz tog stana u kojem sam pitao što je Anton ostavio.,Pitao sam Antona što je ostavio u mom stanu.,iq,0,0,17,ad,ob + ad,relative pronouns
,Timer frame,html.Frame,2_26_1,,,,,,,8279,363941.40000000596,363928.658,363945,372224,372224.2000000179,2025-02-01T20:32:34.374Z,372227.4,6w7AwWxGao,incremental,jednostavno-test,679df971131ae225e46b4282,participant,hcpib7hgm6mn84ng,,,,Izišao sam iz tog stana u kojem sam pitao što je Anton ostavio.,Pitao sam Antona što je ostavio u mom stanu.,iq,0,0,17,ad,ob + ad,relative pronouns
,inter-stimulus,canvas.Screen,2_26_2,,,,,,response,569.9000000118976,372224.2000000179,372210.83,372227.4,372797.3000000119,372798.09999999404,2025-02-01T20:32:34.948Z,372810.6,6w7AwWxGao,incremental,jednostavno-test,679df971131ae225e46b4282,participant,hcpib7hgm6mn84ng,,,mousedown,Izišao sam iz tog stana u kojem sam pitao što je Anton ostavio.,Pitao sam Antona što je ostavio u mom stanu.,iq,0,0,17,ad,ob + ad,relative pronouns
,Sequence,flow.Sequence,2_26,,,,,,completion,11185.338000011921,361610.2000000179,361611.962,361611.962,372797.3000000119,372798.2000000179,2025-02-01T20:32:34.948Z,372810.6,6w7AwWxGao,incremental,jednostavno-test,679df971131ae225e46b4282,participant,hcpib7hgm6mn84ng,,,,Izišao sam iz tog stana u kojem sam pitao što je Anton ostavio.,Pitao sam Antona što je ostavio u mom stanu.,iq,0,0,17,ad,ob + ad,relative pronouns
,context,canvas.Screen,2_27_0_0,,,,,,response,1704.3000000059837,372798.59999999404,372794.13,372810.6,374514.90000000596,374515.5,2025-02-01T20:32:36.666Z,374527.2,6w7AwWxGao,incremental,jednostavno-test,679df971131ae225e46b4282,participant,hcpib7hgm6mn84ng,,,click,"Što, Klara misli, da je Petar kupio na tržnici?",Klara misli da je Petar kupio sat na tržnici.,fac,,,39,ob,ob + ad_mode,interrogative pronouns
,Timer frame,html.Frame,2_27_0,,,,,,,1705.1000000179047,372798.3000000119,372794.13,372810.6,374515.7000000179,374515.7000000179,2025-02-01T20:32:36.666Z,374527.2,6w7AwWxGao,incremental,jednostavno-test,679df971131ae225e46b4282,participant,hcpib7hgm6mn84ng,,,,"Što, Klara misli, da je Petar kupio na tržnici?",Klara misli da je Petar kupio sat na tržnici.,fac,,,39,ob,ob + ad_mode,interrogative pronouns
,stimulus,canvas.Screen,2_27_1_0,,,,,,response,6335.399999994028,374516,374510.592,374527.2,380862.59999999404,380863.7000000179,2025-02-01T20:32:43.017Z,380876.5,6w7AwWxGao,incremental,jednostavno-test,679df971131ae225e46b4282,participant,hcpib7hgm6mn84ng,,6,click @6,"Što, Klara misli, da je Petar kupio na tržnici?",Klara misli da je Petar kupio sat na tržnici.,fac,,,39,ob,ob + ad_mode,interrogative pronouns
,Timer frame,html.Frame,2_27_1,,,,,,,6336.600000011909,374515.8000000119,374510.592,374527.2,380863.8000000119,380863.90000000596,2025-02-01T20:32:43.017Z,380876.5,6w7AwWxGao,incremental,jednostavno-test,679df971131ae225e46b4282,participant,hcpib7hgm6mn84ng,,,,"Što, Klara misli, da je Petar kupio na tržnici?",Klara misli da je Petar kupio sat na tržnici.,fac,,,39,ob,ob + ad_mode,interrogative pronouns
,inter-stimulus,canvas.Screen,2_27_2,,,,,,response,543.8000000119209,380864,380860.2,380876.5,381420.3000000119,381421.09999999404,2025-02-01T20:32:43.574Z,381443,6w7AwWxGao,incremental,jednostavno-test,679df971131ae225e46b4282,participant,hcpib7hgm6mn84ng,,,mousedown,"Što, Klara misli, da je Petar kupio na tržnici?",Klara misli da je Petar kupio sat na tržnici.,fac,,,39,ob,ob + ad_mode,interrogative pronouns
,Sequence,flow.Sequence,2_27,,,,,,completion,8609.700000011944,372798.3000000119,372794.13,372810.6,381420.3000000119,381421.40000000596,2025-02-01T20:32:43.574Z,381443,6w7AwWxGao,incremental,jednostavno-test,679df971131ae225e46b4282,participant,hcpib7hgm6mn84ng,,,,"Što, Klara misli, da je Petar kupio na tržnici?",Klara misli da je Petar kupio sat na tržnici.,fac,,,39,ob,ob + ad_mode,interrogative pronouns
,context,canvas.Screen,2_28_0_0,,,,,,response,2148,381421.7000000179,381426.464,381443,383591,383592.09999999404,2025-02-01T20:32:45.745Z,383610.8,6w7AwWxGao,incremental,jednostavno-test,679df971131ae225e46b4282,participant,hcpib7hgm6mn84ng,,,click,"Što, kurir je razjasnio, kada mora dostaviti?",Kurir je razjasnio kada mora dostaviti paket.,iq,,0,6,ob,ob + ad,interrogative pronouns
,Timer frame,html.Frame,2_28_0,,,,,,,2149.0999999940395,381421.40000000596,381426.464,381443,383592.09999999404,383592.2000000179,2025-02-01T20:32:45.745Z,383610.8,6w7AwWxGao,incremental,jednostavno-test,679df971131ae225e46b4282,participant,hcpib7hgm6mn84ng,,,,"Što, kurir je razjasnio, kada mora dostaviti?",Kurir je razjasnio kada mora dostaviti paket.,iq,,0,6,ob,ob + ad,interrogative pronouns
,stimulus,canvas.Screen,2_28_1_0,,,,,,response,3738.5000000119326,383592.40000000596,383592.86,383610.8,387349.3000000119,387350.2000000179,2025-02-01T20:32:49.503Z,387375.8,6w7AwWxGao,incremental,jednostavno-test,679df971131ae225e46b4282,participant,hcpib7hgm6mn84ng,,1,click @1,"Što, kurir je razjasnio, kada mora dostaviti?",Kurir je razjasnio kada mora dostaviti paket.,iq,,0,6,ob,ob + ad,interrogative pronouns
,Timer frame,html.Frame,2_28_1,,,,,,,3739.5000000119326,383592.3000000119,383592.86,383610.8,387350.3000000119,387350.40000000596,2025-02-01T20:32:49.503Z,387375.8,6w7AwWxGao,incremental,jednostavno-test,679df971131ae225e46b4282,participant,hcpib7hgm6mn84ng,,,,"Što, kurir je razjasnio, kada mora dostaviti?",Kurir je razjasnio kada mora dostaviti paket.,iq,,0,6,ob,ob + ad,interrogative pronouns
,inter-stimulus,canvas.Screen,2_28_2,,,,,,response,455.1000000059721,387350.40000000596,387359.128,387375.8,387830.90000000596,387831.8000000119,2025-02-01T20:32:49.985Z,387859,6w7AwWxGao,incremental,jednostavno-test,679df971131ae225e46b4282,participant,hcpib7hgm6mn84ng,,,mousedown,"Što, kurir je razjasnio, kada mora dostaviti?",Kurir je razjasnio kada mora dostaviti paket.,iq,,0,6,ob,ob + ad,interrogative pronouns
,Sequence,flow.Sequence,2_28,,,,,,completion,6387.9000000059605,381421.40000000596,381426.464,381443,387830.90000000596,387831.90000000596,2025-02-01T20:32:49.985Z,387859,6w7AwWxGao,incremental,jednostavno-test,679df971131ae225e46b4282,participant,hcpib7hgm6mn84ng,,,,"Što, kurir je razjasnio, kada mora dostaviti?",Kurir je razjasnio kada mora dostaviti paket.,iq,,0,6,ob,ob + ad,interrogative pronouns
,context,canvas.Screen,2_29_0_0,,,,,,response,2287.5999999940395,387832.3000000119,387842.4,387859,390146.59999999404,390147.7000000179,2025-02-01T20:32:52.300Z,390175.4,6w7AwWxGao,incremental,jednostavno-test,679df971131ae225e46b4282,participant,hcpib7hgm6mn84ng,,,click,Pronašao sam taj uređaj koji mislim da je Marina izgubila.,Mislim da je Marina izgubila laptop.,fac,,,42,ob,ob + ob,non-interrogative component
,Timer frame,html.Frame,2_29_0,,,,,,,2288.800000011921,387832.09999999404,387842.4,387859,390147.8000000119,390148,2025-02-01T20:32:52.301Z,390175.4,6w7AwWxGao,incremental,jednostavno-test,679df971131ae225e46b4282,participant,hcpib7hgm6mn84ng,,,,Pronašao sam taj uređaj koji mislim da je Marina izgubila.,Mislim da je Marina izgubila laptop.,fac,,,42,ob,ob + ob,non-interrogative component
,stimulus,canvas.Screen,2_29_1_0,,,,,,response,7419.699999994016,390148.2000000179,390158.8,390175.4,397595.09999999404,397595.90000000596,2025-02-01T20:32:59.749Z,397608,6w7AwWxGao,incremental,jednostavno-test,679df971131ae225e46b4282,participant,hcpib7hgm6mn84ng,,5,click @5,Pronašao sam taj uređaj koji mislim da je Marina izgubila.,Mislim da je Marina izgubila laptop.,fac,,,42,ob,ob + ob,non-interrogative component
,Timer frame,html.Frame,2_29_1,,,,,,,7420.599999999977,390148,390158.8,390175.4,397596,397596.2000000179,2025-02-01T20:32:59.749Z,397608,6w7AwWxGao,incremental,jednostavno-test,679df971131ae225e46b4282,participant,hcpib7hgm6mn84ng,,,,Pronašao sam taj uređaj koji mislim da je Marina izgubila.,Mislim da je Marina izgubila laptop.,fac,,,42,ob,ob + ob,non-interrogative component
,inter-stimulus,canvas.Screen,2_29_2,,,,,,response,749,397596.2000000179,397591.492,397608,398357,398358.3000000119,2025-02-01T20:33:00.511Z,398374.6,6w7AwWxGao,incremental,jednostavno-test,679df971131ae225e46b4282,participant,hcpib7hgm6mn84ng,,,mousedown,Pronašao sam taj uređaj koji mislim da je Marina izgubila.,Mislim da je Marina izgubila laptop.,fac,,,42,ob,ob + ob,non-interrogative component
,Sequence,flow.Sequence,2_29,,,,,,completion,10498,387832,387842.4,387859,398357,398358.59999999404,2025-02-01T20:33:00.511Z,398374.6,6w7AwWxGao,incremental,jednostavno-test,679df971131ae225e46b4282,participant,hcpib7hgm6mn84ng,,,,Pronašao sam taj uređaj koji mislim da je Marina izgubila.,Mislim da je Marina izgubila laptop.,fac,,,42,ob,ob + ob,non-interrogative component
,context,canvas.Screen,2_30_0_0,,,,,,response,1262.1000000179047,398358.90000000596,398358,398374.6,399636.7000000179,399637.40000000596,2025-02-01T20:33:01.790Z,399641.1,6w7AwWxGao,incremental,jednostavno-test,679df971131ae225e46b4282,participant,hcpib7hgm6mn84ng,,,click,Želim pojesti jabuku što?,Želim pojesti jabuku.,nf,,,51,filler,filler,filler
,Timer frame,html.Frame,2_30_0,,,,,,,1262.9000000000233,398358.59999999404,398358,398374.6,399637.5,399637.59999999404,2025-02-01T20:33:01.790Z,399641.1,6w7AwWxGao,incremental,jednostavno-test,679df971131ae225e46b4282,participant,hcpib7hgm6mn84ng,,,,Želim pojesti jabuku što?,Želim pojesti jabuku.,nf,,,51,filler,filler,filler
,stimulus,canvas.Screen,2_30_1_0,,,,,,response,2279.999999994063,399637.90000000596,399624.628,399641.1,401921.09999999404,401921.7000000179,2025-02-01T20:33:04.075Z,401924.1,6w7AwWxGao,incremental,jednostavno-test,679df971131ae225e46b4282,participant,hcpib7hgm6mn84ng,,1,click @1,Želim pojesti jabuku što?,Želim pojesti jabuku.,nf,,,51,filler,filler,filler
,Timer frame,html.Frame,2_30_1,,,,,,,2280.8000000059837,399637.7000000179,399624.628,399641.1,401921.90000000596,401922,2025-02-01T20:33:04.075Z,401924.1,6w7AwWxGao,incremental,jednostavno-test,679df971131ae225e46b4282,participant,hcpib7hgm6mn84ng,,,,Želim pojesti jabuku što?,Želim pojesti jabuku.,nf,,,51,filler,filler,filler
,inter-stimulus,canvas.Screen,2_30_2,,,,,,response,442.30000000598375,401922,401907.614,401924.1,402366.40000000596,402367.5,2025-02-01T20:33:04.520Z,402390.7,6w7AwWxGao,incremental,jednostavno-test,679df971131ae225e46b4282,participant,hcpib7hgm6mn84ng,,,mousedown,Želim pojesti jabuku što?,Želim pojesti jabuku.,nf,,,51,filler,filler,filler
,Sequence,flow.Sequence,2_30,,,,,,completion,3991.8000000059837,398358.59999999404,398358,398374.6,402366.40000000596,402367.8000000119,2025-02-01T20:33:04.521Z,402390.7,6w7AwWxGao,incremental,jednostavno-test,679df971131ae225e46b4282,participant,hcpib7hgm6mn84ng,,,,Želim pojesti jabuku što?,Želim pojesti jabuku.,nf,,,51,filler,filler,filler
,context,canvas.Screen,2_31_0_0,,,,,,response,3668.2999999999884,402368.3000000119,402374.228,402390.7,406059,406060.2000000179,2025-02-01T20:33:08.213Z,406073.8,6w7AwWxGao,incremental,jednostavno-test,679df971131ae225e46b4282,participant,hcpib7hgm6mn84ng,,,click,Kako u posljednje vrijeme moja mala sestra ne ponaša se?,U posljednje vrijeme moja mala sestra se ne ponaša kao prije.,neg,,,23,ad_mode,ad_mode + ad_measure,interrogative pronouns
,Timer frame,html.Frame,2_31_0,,,,,,,3669.6000000119093,402367.90000000596,402374.228,402390.7,406060.3000000119,406060.3000000119,2025-02-01T20:33:08.213Z,406073.8,6w7AwWxGao,incremental,jednostavno-test,679df971131ae225e46b4282,participant,hcpib7hgm6mn84ng,,,,Kako u posljednje vrijeme moja mala sestra ne ponaša se?,U posljednje vrijeme moja mala sestra se ne ponaša kao prije.,neg,,,23,ad_mode,ad_mode + ad_measure,interrogative pronouns
,stimulus,canvas.Screen,2_31_1_0,,,,,,response,4937.700000000012,406060.5,406057.1,406073.8,411011.5,411012.40000000596,2025-02-01T20:33:13.165Z,411023.2,6w7AwWxGao,incremental,jednostavno-test,679df971131ae225e46b4282,participant,hcpib7hgm6mn84ng,,2,click @2,Kako u posljednje vrijeme moja mala sestra ne ponaša se?,U posljednje vrijeme moja mala sestra se ne ponaša kao prije.,neg,,,23,ad_mode,ad_mode + ad_measure,interrogative pronouns
,Timer frame,html.Frame,2_31_1,,,,,,,4938.900000017893,406060.40000000596,406057.1,406073.8,411012.7000000179,411012.8000000119,2025-02-01T20:33:13.166Z,411023.2,6w7AwWxGao,incremental,jednostavno-test,679df971131ae225e46b4282,participant,hcpib7hgm6mn84ng,,,,Kako u posljednje vrijeme moja mala sestra ne ponaša se?,U posljednje vrijeme moja mala sestra se ne ponaša kao prije.,neg,,,23,ad_mode,ad_mode + ad_measure,interrogative pronouns
,inter-stimulus,canvas.Screen,2_31_2,,,,,,response,382.2000000059488,411013,411006.654,411023.2,411405.40000000596,411406.3000000119,2025-02-01T20:33:13.559Z,411439.7,6w7AwWxGao,incremental,jednostavno-test,679df971131ae225e46b4282,participant,hcpib7hgm6mn84ng,,,mousedown,Kako u posljednje vrijeme moja mala sestra ne ponaša se?,U posljednje vrijeme moja mala sestra se ne ponaša kao prije.,neg,,,23,ad_mode,ad_mode + ad_measure,interrogative pronouns
,Sequence,flow.Sequence,2_31,,,,,,completion,9014.700000005949,402367.90000000596,402374.228,402390.7,411405.40000000596,411406.40000000596,2025-02-01T20:33:13.559Z,411439.7,6w7AwWxGao,incremental,jednostavno-test,679df971131ae225e46b4282,participant,hcpib7hgm6mn84ng,,,,Kako u posljednje vrijeme moja mala sestra ne ponaša se?,U posljednje vrijeme moja mala sestra se ne ponaša kao prije.,neg,,,23,ad_mode,ad_mode + ad_measure,interrogative pronouns
,context,canvas.Screen,2_32_0_0,,,,,,response,2503.399999994028,411406.90000000596,411423.228,411439.7,413943.09999999404,413943.7000000179,2025-02-01T20:33:16.097Z,413972.8,6w7AwWxGao,incremental,jednostavno-test,679df971131ae225e46b4282,participant,hcpib7hgm6mn84ng,,,click,Kog moja obitelj nije povela na odmor u Bugarsku?,Moja obitelj nije povela mog brata na odmor u Bugarsku.,neg,,,20,ob,ob + ob,interrogative pronouns
,Timer frame,html.Frame,2_32_0,,,,,,,2504.200000005949,411406.5,411423.228,411439.7,413943.90000000596,413944,2025-02-01T20:33:16.097Z,413972.8,6w7AwWxGao,incremental,jednostavno-test,679df971131ae225e46b4282,participant,hcpib7hgm6mn84ng,,,,Kog moja obitelj nije povela na odmor u Bugarsku?,Moja obitelj nije povela mog brata na odmor u Bugarsku.,neg,,,20,ob,ob + ob,interrogative pronouns
,stimulus,canvas.Screen,2_32_1_0,,,,,,response,3219.400000017893,413944.2000000179,413956.324,413972.8,417192.2000000179,417192.90000000596,2025-02-01T20:33:19.346Z,417205.8,6w7AwWxGao,incremental,jednostavno-test,679df971131ae225e46b4282,participant,hcpib7hgm6mn84ng,,7,click @7,Kog moja obitelj nije povela na odmor u Bugarsku?,Moja obitelj nije povela mog brata na odmor u Bugarsku.,neg,,,20,ob,ob + ob,interrogative pronouns
,Timer frame,html.Frame,2_32_1,,,,,,,3220.299999994051,413944,413956.324,413972.8,417193.09999999404,417193.09999999404,2025-02-01T20:33:19.346Z,417205.8,6w7AwWxGao,incremental,jednostavno-test,679df971131ae225e46b4282,participant,hcpib7hgm6mn84ng,,,,Kog moja obitelj nije povela na odmor u Bugarsku?,Moja obitelj nije povela mog brata na odmor u Bugarsku.,neg,,,20,ob,ob + ob,interrogative pronouns
,inter-stimulus,canvas.Screen,2_32_2,,,,,,response,409.7999999940512,417193.2000000179,417189.294,417205.8,417615.59999999404,417616.40000000596,2025-02-01T20:33:19.769Z,417622.4,6w7AwWxGao,incremental,jednostavno-test,679df971131ae225e46b4282,participant,hcpib7hgm6mn84ng,,,mousedown,Kog moja obitelj nije povela na odmor u Bugarsku?,Moja obitelj nije povela mog brata na odmor u Bugarsku.,neg,,,20,ob,ob + ob,interrogative pronouns
,Sequence,flow.Sequence,2_32,,,,,,completion,6175.899999994028,411406.5,411423.228,411439.7,417615.59999999404,417616.5,2025-02-01T20:33:19.769Z,417622.4,6w7AwWxGao,incremental,jednostavno-test,679df971131ae225e46b4282,participant,hcpib7hgm6mn84ng,,,,Kog moja obitelj nije povela na odmor u Bugarsku?,Moja obitelj nije povela mog brata na odmor u Bugarsku.,neg,,,20,ob,ob + ob,interrogative pronouns
,context,canvas.Screen,2_33_0_0,,,,,,response,3142.0999999999767,417616.90000000596,417605.832,417622.4,420764.5,420765.09999999404,2025-02-01T20:33:22.918Z,420772.1,6w7AwWxGao,incremental,jednostavno-test,679df971131ae225e46b4282,participant,hcpib7hgm6mn84ng,,,click,"Tko, tvoja prijateljica pitala je, gdje radi?",Tvoja prijateljica pitala je gdje radi moj brat.,iq,0,0,2,sub,sub + ob,interrogative pronouns
,Timer frame,html.Frame,2_33_0,,,,,,,3142.800000017858,417616.59999999404,417605.832,417622.4,420765.2000000179,420765.2000000179,2025-02-01T20:33:22.918Z,420772.1,6w7AwWxGao,incremental,jednostavno-test,679df971131ae225e46b4282,participant,hcpib7hgm6mn84ng,,,,"Tko, tvoja prijateljica pitala je, gdje radi?",Tvoja prijateljica pitala je gdje radi moj brat.,iq,0,0,2,sub,sub + ob,interrogative pronouns
,stimulus,canvas.Screen,2_33_1_0,,,,,,response,3144.9000000000233,420765.5,420755.898,420772.1,423917,423917.7000000179,2025-02-01T20:33:26.071Z,423938.4,6w7AwWxGao,incremental,jednostavno-test,679df971131ae225e46b4282,participant,hcpib7hgm6mn84ng,,1,click @1,"Tko, tvoja prijateljica pitala je, gdje radi?",Tvoja prijateljica pitala je gdje radi moj brat.,iq,0,0,2,sub,sub + ob,interrogative pronouns
,Timer frame,html.Frame,2_33_1,,,,,,,3145.700000011944,420765.3000000119,420755.898,420772.1,423917.8000000119,423917.90000000596,2025-02-01T20:33:26.071Z,423938.4,6w7AwWxGao,incremental,jednostavno-test,679df971131ae225e46b4282,participant,hcpib7hgm6mn84ng,,,,"Tko, tvoja prijateljica pitala je, gdje radi?",Tvoja prijateljica pitala je gdje radi moj brat.,iq,0,0,2,sub,sub + ob,interrogative pronouns
,inter-stimulus,canvas.Screen,2_33_2,,,,,,response,446.69999999401625,423918,423921.798,423938.4,424385.09999999404,424385.90000000596,2025-02-01T20:33:26.539Z,424405.1,6w7AwWxGao,incremental,jednostavno-test,679df971131ae225e46b4282,participant,hcpib7hgm6mn84ng,,,mousedown,"Tko, tvoja prijateljica pitala je, gdje radi?",Tvoja prijateljica pitala je gdje radi moj brat.,iq,0,0,2,sub,sub + ob,interrogative pronouns
,Sequence,flow.Sequence,2_33,,,,,,completion,6762.699999994016,417616.59999999404,417605.832,417622.4,424385.09999999404,424386.09999999404,2025-02-01T20:33:26.539Z,424405.1,6w7AwWxGao,incremental,jednostavno-test,679df971131ae225e46b4282,participant,hcpib7hgm6mn84ng,,,,"Tko, tvoja prijateljica pitala je, gdje radi?",Tvoja prijateljica pitala je gdje radi moj brat.,iq,0,0,2,sub,sub + ob,interrogative pronouns
,context,canvas.Screen,2_34_0_0,,,,,,response,2632.700000011944,424386.40000000596,424388.494,424405.1,427037.8000000119,427038.7000000179,2025-02-01T20:33:29.192Z,427054.7,6w7AwWxGao,incremental,jednostavno-test,679df971131ae225e46b4282,participant,hcpib7hgm6mn84ng,,,click,Kamo na ljeto ide Slavko na work and travel program?,Na ljeto Slavko ide u USA na work and travel program.,iq,0,0,8,ad,ad + ad+ ad,interrogative pronouns
,Timer frame,html.Frame,2_34_0,,,,,,,2633.8000000059837,424386.09999999404,424388.494,424405.1,427038.90000000596,427039.09999999404,2025-02-01T20:33:29.192Z,427054.7,6w7AwWxGao,incremental,jednostavno-test,679df971131ae225e46b4282,participant,hcpib7hgm6mn84ng,,,,Kamo na ljeto ide Slavko na work and travel program?,Na ljeto Slavko ide u USA na work and travel program.,iq,0,0,8,ad,ad + ad+ ad,interrogative pronouns
,stimulus,canvas.Screen,2_34_1_0,,,,,,response,6661.700000005949,427039.40000000596,427038.3,427054.7,433716.40000000596,433717.09999999404,2025-02-01T20:33:35.870Z,433720.7,6w7AwWxGao,incremental,jednostavno-test,679df971131ae225e46b4282,participant,hcpib7hgm6mn84ng,,4,click @4,Kamo na ljeto ide Slavko na work and travel program?,Na ljeto Slavko ide u USA na work and travel program.,iq,0,0,8,ad,ad + ad+ ad,interrogative pronouns
,Timer frame,html.Frame,2_34_1,,,,,,,6662.600000011909,427039.2000000179,427038.3,427054.7,433717.3000000119,433717.3000000119,2025-02-01T20:33:35.870Z,433720.7,6w7AwWxGao,incremental,jednostavno-test,679df971131ae225e46b4282,participant,hcpib7hgm6mn84ng,,,,Kamo na ljeto ide Slavko na work and travel program?,Na ljeto Slavko ide u USA na work and travel program.,iq,0,0,8,ad,ad + ad+ ad,interrogative pronouns
,inter-stimulus,canvas.Screen,2_34_2,,,,,,response,620.2999999999884,433717.3000000119,433704.128,433720.7,434341,434342.09999999404,2025-02-01T20:33:36.495Z,434353.9,6w7AwWxGao,incremental,jednostavno-test,679df971131ae225e46b4282,participant,hcpib7hgm6mn84ng,,,mousedown,Kamo na ljeto ide Slavko na work and travel program?,Na ljeto Slavko ide u USA na work and travel program.,iq,0,0,8,ad,ad + ad+ ad,interrogative pronouns
,Sequence,flow.Sequence,2_34,,,,,,completion,9935.900000000023,424386.09999999404,424388.494,424405.1,434341,434342.2000000179,2025-02-01T20:33:36.495Z,434353.9,6w7AwWxGao,incremental,jednostavno-test,679df971131ae225e46b4282,participant,hcpib7hgm6mn84ng,,,,Kamo na ljeto ide Slavko na work and travel program?,Na ljeto Slavko ide u USA na work and travel program.,iq,0,0,8,ad,ad + ad+ ad,interrogative pronouns
,context,canvas.Screen,2_35_0_0,,,,,,response,2965.6999999940163,434342.59999999404,434337.342,434353.9,437319.59999999404,437320.40000000596,2025-02-01T20:33:39.473Z,437336.9,6w7AwWxGao,incremental,jednostavno-test,679df971131ae225e46b4282,participant,hcpib7hgm6mn84ng,,,click,U hladnjaku je bio sladoled koji je otac pitao za koga da kupi u trgovini.,Otac je pitao za koga da kupi sladoled u trgovini.,iq,0,0,15,ob_indir,ob_dir + ob_indir,relative pronouns
,Timer frame,html.Frame,2_35_0,,,,,,,2966.5999999999767,434342.3000000119,434337.342,434353.9,437320.5,437320.5,2025-02-01T20:33:39.473Z,437336.9,6w7AwWxGao,incremental,jednostavno-test,679df971131ae225e46b4282,participant,hcpib7hgm6mn84ng,,,,U hladnjaku je bio sladoled koji je otac pitao za koga da kupi u trgovini.,Otac je pitao za koga da kupi sladoled u trgovini.,iq,0,0,15,ob_indir,ob_dir + ob_indir,relative pronouns
,stimulus,canvas.Screen,2_35_1_0,,,,,,response,4515.800000017858,437320.8000000119,437321.272,437336.9,441852.7000000179,441853.40000000596,2025-02-01T20:33:44.009Z,441886.4,6w7AwWxGao,incremental,jednostavno-test,679df971131ae225e46b4282,participant,hcpib7hgm6mn84ng,,3,click @3,U hladnjaku je bio sladoled koji je otac pitao za koga da kupi u trgovini.,Otac je pitao za koga da kupi sladoled u trgovini.,iq,0,0,15,ob_indir,ob_dir + ob_indir,relative pronouns
,Timer frame,html.Frame,2_35_1,,,,,,,4516.500000005937,437320.59999999404,437321.272,437336.9,441853.40000000596,441853.5,2025-02-01T20:33:44.009Z,441886.4,6w7AwWxGao,incremental,jednostavno-test,679df971131ae225e46b4282,participant,hcpib7hgm6mn84ng,,,,U hladnjaku je bio sladoled koji je otac pitao za koga da kupi u trgovini.,Otac je pitao za koga da kupi sladoled u trgovini.,iq,0,0,15,ob_indir,ob_dir + ob_indir,relative pronouns
,inter-stimulus,canvas.Screen,2_35_2,,,,,,response,369.0999999999767,441853.59999999404,441869.762,441886.4,442255.5,442256.59999999404,2025-02-01T20:33:44.412Z,442269.7,6w7AwWxGao,incremental,jednostavno-test,679df971131ae225e46b4282,participant,hcpib7hgm6mn84ng,,,mousedown,U hladnjaku je bio sladoled koji je otac pitao za koga da kupi u trgovini.,Otac je pitao za koga da kupi sladoled u trgovini.,iq,0,0,15,ob_indir,ob_dir + ob_indir,relative pronouns
,Sequence,flow.Sequence,2_35,,,,,,completion,7901.599999999977,434342.3000000119,434337.342,434353.9,442255.5,442256.8000000119,2025-02-01T20:33:44.412Z,442269.7,6w7AwWxGao,incremental,jednostavno-test,679df971131ae225e46b4282,participant,hcpib7hgm6mn84ng,,,,U hladnjaku je bio sladoled koji je otac pitao za koga da kupi u trgovini.,Otac je pitao za koga da kupi sladoled u trgovini.,iq,0,0,15,ob_indir,ob_dir + ob_indir,relative pronouns
,context,canvas.Screen,2_36_0_0,,,,,,response,1556.2999999999884,442257.2000000179,442253.128,442269.7,443826,443826.59999999404,2025-02-01T20:33:45.982Z,443836.2,6w7AwWxGao,incremental,jednostavno-test,679df971131ae225e46b4282,participant,hcpib7hgm6mn84ng,,,click,Morat ću raditi u tim uvjetima u kojim baš sam pitao kako se ponašati.,Pitao sam kako se ponašati u takvim uvjetima.,iq,0,0,18,ad,ob + ad,relative pronouns
,Timer frame,html.Frame,2_36_0,,,,,,,1557.1000000119093,442257,442253.128,442269.7,443826.8000000119,443826.8000000119,2025-02-01T20:33:45.982Z,443836.2,6w7AwWxGao,incremental,jednostavno-test,679df971131ae225e46b4282,participant,hcpib7hgm6mn84ng,,,,Morat ću raditi u tim uvjetima u kojim baš sam pitao kako se ponašati.,Pitao sam kako se ponašati u takvim uvjetima.,iq,0,0,18,ad,ob + ad,relative pronouns
,stimulus,canvas.Screen,2_36_1_0,,,,,,response,4222.100000011909,443827.09999999404,443820.124,443836.2,448058.3000000119,448059.3000000119,2025-02-01T20:33:50.215Z,448085.7,6w7AwWxGao,incremental,jednostavno-test,679df971131ae225e46b4282,participant,hcpib7hgm6mn84ng,,2,click @2,Morat ću raditi u tim uvjetima u kojim baš sam pitao kako se ponašati.,Pitao sam kako se ponašati u takvim uvjetima.,iq,0,0,18,ad,ob + ad,relative pronouns
,Timer frame,html.Frame,2_36_1,,,,,,,4223.200000005949,443826.90000000596,443820.124,443836.2,448059.40000000596,448059.5,2025-02-01T20:33:50.215Z,448085.7,6w7AwWxGao,incremental,jednostavno-test,679df971131ae225e46b4282,participant,hcpib7hgm6mn84ng,,,,Morat ću raditi u tim uvjetima u kojim baš sam pitao kako se ponašati.,Pitao sam kako se ponašati u takvim uvjetima.,iq,0,0,18,ad,ob + ad,relative pronouns
,inter-stimulus,canvas.Screen,2_36_2,,,,,,response,433.8999999940279,448059.59999999404,448069.2,448085.7,448519.59999999404,448520.7000000179,2025-02-01T20:33:50.676Z,448535.7,6w7AwWxGao,incremental,jednostavno-test,679df971131ae225e46b4282,participant,hcpib7hgm6mn84ng,,,mousedown,Morat ću raditi u tim uvjetima u kojim baš sam pitao kako se ponašati.,Pitao sam kako se ponašati u takvim uvjetima.,iq,0,0,18,ad,ob + ad,relative pronouns
,Sequence,flow.Sequence,2_36,,,,,,completion,6249.899999994028,442257,442253.128,442269.7,448519.59999999404,448521,2025-02-01T20:33:50.677Z,448535.7,6w7AwWxGao,incremental,jednostavno-test,679df971131ae225e46b4282,participant,hcpib7hgm6mn84ng,,,,Morat ću raditi u tim uvjetima u kojim baš sam pitao kako se ponašati.,Pitao sam kako se ponašati u takvim uvjetima.,iq,0,0,18,ad,ob + ad,relative pronouns
,context,canvas.Screen,2_37_0_0,,,,,,response,1732.399999994028,448521.3000000119,448519.166,448535.7,450268.09999999404,450269,2025-02-01T20:33:52.425Z,450285.5,6w7AwWxGao,incremental,jednostavno-test,679df971131ae225e46b4282,participant,hcpib7hgm6mn84ng,,,click,Pronašao sam tu stvar koju znam da je Marina izgubila.,Znam da je Marina izgubila ključeve.,fac,0,,41,ob,ob + ob,non-interrogative component
,Timer frame,html.Frame,2_37_0,,,,,,,1733.399999994028,448521.09999999404,448519.166,448535.7,450269.09999999404,450269.2000000179,2025-02-01T20:33:52.425Z,450285.5,6w7AwWxGao,incremental,jednostavno-test,679df971131ae225e46b4282,participant,hcpib7hgm6mn84ng,,,,Pronašao sam tu stvar koju znam da je Marina izgubila.,Znam da je Marina izgubila ključeve.,fac,0,,41,ob,ob + ob,non-interrogative component
,stimulus,canvas.Screen,2_37_1_0,,,,,,response,4613.800000011921,450269.40000000596,450269.066,450285.5,454899.3000000119,454900.5,2025-02-01T20:33:57.056Z,454901.858,6w7AwWxGao,incremental,jednostavno-test,679df971131ae225e46b4282,participant,hcpib7hgm6mn84ng,,6,click @6,Pronašao sam tu stvar koju znam da je Marina izgubila.,Znam da je Marina izgubila ključeve.,fac,0,,41,ob,ob + ob,non-interrogative component
,Timer frame,html.Frame,2_37_1,,,,,,,4615.0999999940395,450269.2000000179,450269.066,450285.5,454900.59999999404,454900.7000000179,2025-02-01T20:33:57.056Z,454901.858,6w7AwWxGao,incremental,jednostavno-test,679df971131ae225e46b4282,participant,hcpib7hgm6mn84ng,,,,Pronašao sam tu stvar koju znam da je Marina izgubila.,Znam da je Marina izgubila ključeve.,fac,0,,41,ob,ob + ob,non-interrogative component
,inter-stimulus,canvas.Screen,2_37_2,,,,,,response,1256.6419999999925,454900.7000000179,454901.858,454901.858,456158.5,456159.40000000596,2025-02-01T20:33:58.315Z,456168.1,6w7AwWxGao,incremental,jednostavno-test,679df971131ae225e46b4282,participant,hcpib7hgm6mn84ng,,,mousedown,Pronašao sam tu stvar koju znam da je Marina izgubila.,Znam da je Marina izgubila ključeve.,fac,0,,41,ob,ob + ob,non-interrogative component
,Sequence,flow.Sequence,2_37,,,,,,completion,7622.799999999988,448521.09999999404,448519.166,448535.7,456158.5,456159.5,2025-02-01T20:33:58.315Z,456168.1,6w7AwWxGao,incremental,jednostavno-test,679df971131ae225e46b4282,participant,hcpib7hgm6mn84ng,,,,Pronašao sam tu stvar koju znam da je Marina izgubila.,Znam da je Marina izgubila ključeve.,fac,0,,41,ob,ob + ob,non-interrogative component
,context,canvas.Screen,2_38_0_0,,,,,,response,1640.9000000000233,456159.90000000596,456151.7,456168.1,457809,457809.7000000179,2025-02-01T20:33:59.965Z,457818.3,6w7AwWxGao,incremental,jednostavno-test,679df971131ae225e46b4282,participant,hcpib7hgm6mn84ng,,,click,Moj se prijatelj ne može sjetiti gdje živi Karina.,Karina živi u Osijeku.,gf,,0,49,filler,filler,filler
,Timer frame,html.Frame,2_38_0,,,,,,,1641.8000000059837,456159.59999999404,456151.7,456168.1,457809.90000000596,457810,2025-02-01T20:33:59.966Z,457818.3,6w7AwWxGao,incremental,jednostavno-test,679df971131ae225e46b4282,participant,hcpib7hgm6mn84ng,,,,Moj se prijatelj ne može sjetiti gdje živi Karina.,Karina živi u Osijeku.,gf,,0,49,filler,filler,filler
,stimulus,canvas.Screen,2_38_1_0,,,,,,response,3949.600000005972,457810.2000000179,457801.546,457818.3,461767.90000000596,461768.90000000596,2025-02-01T20:34:03.924Z,461784.2,6w7AwWxGao,incremental,jednostavno-test,679df971131ae225e46b4282,participant,hcpib7hgm6mn84ng,,7,click @7,Moj se prijatelj ne može sjetiti gdje živi Karina.,Karina živi u Osijeku.,gf,,0,49,filler,filler,filler
,Timer frame,html.Frame,2_38_1,,,,,,,3950.7000000000116,457810,457801.546,457818.3,461769,461769.2000000179,2025-02-01T20:34:03.925Z,461784.2,6w7AwWxGao,incremental,jednostavno-test,679df971131ae225e46b4282,participant,hcpib7hgm6mn84ng,,,,Moj se prijatelj ne može sjetiti gdje živi Karina.,Karina živi u Osijeku.,gf,,0,49,filler,filler,filler
,inter-stimulus,canvas.Screen,2_38_2,,,,,,response,649.7999999999884,461769.2000000179,461767.8,461784.2,462434,462435.2000000179,2025-02-01T20:34:04.591Z,462450.8,6w7AwWxGao,incremental,jednostavno-test,679df971131ae225e46b4282,participant,hcpib7hgm6mn84ng,,,mousedown,Moj se prijatelj ne može sjetiti gdje živi Karina.,Karina živi u Osijeku.,gf,,0,49,filler,filler,filler
,Sequence,flow.Sequence,2_38,,,,,,completion,6265.900000000023,456159.59999999404,456151.7,456168.1,462434,462435.40000000596,2025-02-01T20:34:04.591Z,462450.8,6w7AwWxGao,incremental,jednostavno-test,679df971131ae225e46b4282,participant,hcpib7hgm6mn84ng,,,,Moj se prijatelj ne može sjetiti gdje živi Karina.,Karina živi u Osijeku.,gf,,0,49,filler,filler,filler
