meta,sender,sender_type,sender_id,age,education,croatian-knowledge,occupation,,ended_on,duration,time_run,time_render,time_show,time_end,time_commit,timestamp,time_switch,openLabId,type,task,project,status,code,confirmationCode,response,response_action,stimulus,context,island_type,transfer_s,transfer_c,id,movement,opposition,category
"{""labjs_version"":""20.2.4"",""labjs_build"":{""flavor"":""production"",""commit"":""f5b4a49f956347addd546a832a3327688c2c0fef""},""location"":""https://open-lab.online/test/jednostavno-test/679e1111131ae225e46b42c9"",""userAgent"":""Mozilla/5.0 (Linux; Android 10; K) AppleWebKit/537.36 (KHTML, like Gecko) SamsungBrowser/27.0 Chrome/125.0.0.0 Mobile Safari/537.36"",""platform"":""Linux armv81"",""language"":""hr-HR"",""locale"":""hr"",""timeZone"":""Europe/Zagreb"",""timezoneOffset"":-60,""screen_width"":360,""screen_height"":780,""scroll_width"":980,""scroll_height"":1871,""window_innerWidth"":980,""window_innerHeight"":1788,""devicePixelRatio"":3}",Demography form,html.Form,0,26,master,mother-tongue,Magistar francuskog jezika i lingvistike,,form submission,41402.799999952316,1384.1000000238419,1390.4,1432.5,42835.299999952316,42836.60000002384,2025-02-01T12:19:08.543Z,42876.1,a8Z-qgkUcx,incremental,jednostavno-test,679df971131ae225e46b4282,participant,hcpib7hgm6m5ssxy,277875,,,,,,,,,,,
,context,canvas.Screen,1_0,,,,,,response,4384.699999952318,42837.39999997616,42875.89,42876.1,47260.799999952316,47482.299999952316,2025-02-01T12:19:13.188Z,47532.5,a8Z-qgkUcx,incremental,jednostavno-test,679df971131ae225e46b4282,participant,hcpib7hgm6m5ssxy,,,click,,,,,,,,,
,stimulus,canvas.Screen,1_1,,,,,,response,18935.699999928474,47482.39999997616,47506.882,47532.5,66468.19999992847,66667.79999995232,2025-02-01T12:19:32.374Z,66714.5,a8Z-qgkUcx,incremental,jednostavno-test,679df971131ae225e46b4282,participant,hcpib7hgm6m5ssxy,,7,click @7,,,,,,,,,
,inter-stimulus,canvas.Screen,1_2,,,,,,response,12554.600000023842,66668.10000002384,66712.982,66714.5,79269.10000002384,79492.79999995232,2025-02-01T12:19:45.199Z,79540.9,a8Z-qgkUcx,incremental,jednostavno-test,679df971131ae225e46b4282,participant,hcpib7hgm6m5ssxy,,,mousedown,,,,,,,,,
,context,canvas.Screen,1_3,,,,,,response,8422.100000000006,79493.10000002384,79523.606,79540.9,87963,88158.29999995232,2025-02-01T12:19:53.864Z,88216.318,a8Z-qgkUcx,incremental,jednostavno-test,679df971131ae225e46b4282,participant,hcpib7hgm6m5ssxy,,,click,,,,,,,,,
,stimulus,canvas.Screen,1_4,,,,,,response,8488.682,88158.5,88216.318,88216.318,96705,96874.60000002384,2025-02-01T12:20:02.581Z,96901.7,a8Z-qgkUcx,incremental,jednostavno-test,679df971131ae225e46b4282,participant,hcpib7hgm6m5ssxy,,1,click @1,,,,,,,,,
,inter-stimulus,canvas.Screen,1_5,,,,,,response,4785.300000000003,96874.79999995232,96899.304,96901.7,101687,101911.89999997616,2025-02-01T12:20:07.618Z,101968.164,a8Z-qgkUcx,incremental,jednostavno-test,679df971131ae225e46b4282,participant,hcpib7hgm6m5ssxy,,,mousedown,,,,,,,,,
,context,canvas.Screen,1_6,,,,,,response,5727.735999976154,101912.19999992847,101968.164,101968.164,107695.89999997616,107903.69999992847,2025-02-01T12:20:13.610Z,107959.3,a8Z-qgkUcx,incremental,jednostavno-test,679df971131ae225e46b4282,participant,hcpib7hgm6m5ssxy,,,click,,,,,,,,,
,stimulus,canvas.Screen,1_7_0,,,,,,response,7330.599999976155,107907.19999992847,107934.592,107959.3,115289.89999997616,115463.79999995232,2025-02-01T12:20:21.170Z,115528.6,a8Z-qgkUcx,incremental,jednostavno-test,679df971131ae225e46b4282,participant,hcpib7hgm6m5ssxy,,7,click @7,,,,,,,,,
,Timer frame,html.Frame,1_7,,,,,,,7504.8999999284715,107904,107934.592,107959.3,115464.19999992847,115465.19999992847,2025-02-01T12:20:21.171Z,115528.6,a8Z-qgkUcx,incremental,jednostavno-test,679df971131ae225e46b4282,participant,hcpib7hgm6m5ssxy,,,,,,,,,,,,
,inter-stimulus,canvas.Screen,1_8,,,,,,response,5378.599999928469,115465.39999997616,115528.53,115528.6,120907.19999992847,121108.60000002384,2025-02-01T12:20:26.815Z,121153.3,a8Z-qgkUcx,incremental,jednostavno-test,679df971131ae225e46b4282,participant,hcpib7hgm6m5ssxy,,,mousedown,,,,,,,,,
,First stimuli,flow.Sequence,1,,,,,,completion,78031.09999992847,42837.299999952316,42875.89,42876.1,120907.19999992847,121111.79999995232,2025-02-01T12:20:26.818Z,121153.3,a8Z-qgkUcx,incremental,jednostavno-test,679df971131ae225e46b4282,participant,hcpib7hgm6m5ssxy,,,,,,,,,,,,
,context,canvas.Screen,2_0_0_0,,,,,,response,5327.099999976155,121112.60000002384,121145.042,121153.3,126480.39999997616,126682.69999992847,2025-02-01T12:20:32.389Z,126727.3,a8Z-qgkUcx,incremental,jednostavno-test,679df971131ae225e46b4282,participant,hcpib7hgm6m5ssxy,,,click,Kako u posljednje vrijeme moja mala sestra ne ponaša se?,U posljednje vrijeme moja mala sestra se ne ponaša kao prije.,neg,,,23,ad_mode,ad_mode + ad_measure,interrogative pronouns
,Timer frame,html.Frame,2_0_0,,,,,,,5529.599999976155,121112.19999992847,121145.042,121153.3,126682.89999997616,126683.69999992847,2025-02-01T12:20:32.390Z,126727.3,a8Z-qgkUcx,incremental,jednostavno-test,679df971131ae225e46b4282,participant,hcpib7hgm6m5ssxy,,,,Kako u posljednje vrijeme moja mala sestra ne ponaša se?,U posljednje vrijeme moja mala sestra se ne ponaša kao prije.,neg,,,23,ad_mode,ad_mode + ad_measure,interrogative pronouns
,stimulus,canvas.Screen,2_0_1_0,,,,,,response,5769.3999999284715,126684.19999992847,126727.164,126727.3,132496.69999992847,132674.10000002384,2025-02-01T12:20:38.380Z,132701.8,a8Z-qgkUcx,incremental,jednostavno-test,679df971131ae225e46b4282,participant,hcpib7hgm6m5ssxy,,1,click @1,Kako u posljednje vrijeme moja mala sestra ne ponaša se?,U posljednje vrijeme moja mala sestra se ne ponaša kao prije.,neg,,,23,ad_mode,ad_mode + ad_measure,interrogative pronouns
,Timer frame,html.Frame,2_0_1,,,,,,,5946.999999952313,126683.89999997616,126727.164,126727.3,132674.29999995232,132674.89999997616,2025-02-01T12:20:38.381Z,132701.8,a8Z-qgkUcx,incremental,jednostavno-test,679df971131ae225e46b4282,participant,hcpib7hgm6m5ssxy,,,,Kako u posljednje vrijeme moja mala sestra ne ponaša se?,U posljednje vrijeme moja mala sestra se ne ponaša kao prije.,neg,,,23,ad_mode,ad_mode + ad_measure,interrogative pronouns
,inter-stimulus,canvas.Screen,2_0_2,,,,,,response,2981.8000000238535,132675.10000002384,132701.764,132701.8,135683.60000002384,135883.10000002384,2025-02-01T12:20:41.589Z,135918.338,a8Z-qgkUcx,incremental,jednostavno-test,679df971131ae225e46b4282,participant,hcpib7hgm6m5ssxy,,,mousedown,Kako u posljednje vrijeme moja mala sestra ne ponaša se?,U posljednje vrijeme moja mala sestra se ne ponaša kao prije.,neg,,,23,ad_mode,ad_mode + ad_measure,interrogative pronouns
,Sequence,flow.Sequence,2_0,,,,,,completion,14530.300000023839,121112.10000002384,121145.042,121153.3,135683.60000002384,135883.5,2025-02-01T12:20:41.590Z,135918.338,a8Z-qgkUcx,incremental,jednostavno-test,679df971131ae225e46b4282,participant,hcpib7hgm6m5ssxy,,,,Kako u posljednje vrijeme moja mala sestra ne ponaša se?,U posljednje vrijeme moja mala sestra se ne ponaša kao prije.,neg,,,23,ad_mode,ad_mode + ad_measure,interrogative pronouns
,context,canvas.Screen,2_1_0_0,,,,,,response,2510.162000000011,135884.10000002384,135918.338,135918.338,138428.5,138621.79999995232,2025-02-01T12:20:44.328Z,138658.5,a8Z-qgkUcx,incremental,jednostavno-test,679df971131ae225e46b4282,participant,hcpib7hgm6m5ssxy,,,click,Kako je Ivan požalio što se ponašao na zabavi?,Ivan je požalio što se ponašao drsko na zabavi.,fac,0,0,32,ad_mode,ob_dir + ad_mode + ad_measure,interrogative pronouns
,Timer frame,html.Frame,2_1_0,,,,,,,2703.662000000011,135883.79999995232,135918.338,135918.338,138622,138622.19999992847,2025-02-01T12:20:44.328Z,138658.5,a8Z-qgkUcx,incremental,jednostavno-test,679df971131ae225e46b4282,participant,hcpib7hgm6m5ssxy,,,,Kako je Ivan požalio što se ponašao na zabavi?,Ivan je požalio što se ponašao drsko na zabavi.,fac,0,0,32,ad_mode,ob_dir + ad_mode + ad_measure,interrogative pronouns
,stimulus,canvas.Screen,2_1_1_0,,,,,,timeout,11080.799999999988,138622.60000002384,138641.596,138658.5,149614.3,149635.39999997616,2025-02-01T12:20:55.341Z,149739.3,a8Z-qgkUcx,incremental,jednostavno-test,679df971131ae225e46b4282,participant,hcpib7hgm6m5ssxy,,,,Kako je Ivan požalio što se ponašao na zabavi?,Ivan je požalio što se ponašao drsko na zabavi.,fac,0,0,32,ad_mode,ob_dir + ad_mode + ad_measure,interrogative pronouns
,Timer frame,html.Frame,2_1_1,,,,,,,10977.5,138622.29999995232,138641.596,138658.5,149636,149636.69999992847,2025-02-01T12:20:55.343Z,149781.4,a8Z-qgkUcx,incremental,jednostavno-test,679df971131ae225e46b4282,participant,hcpib7hgm6m5ssxy,,,,Kako je Ivan požalio što se ponašao na zabavi?,Ivan je požalio što se ponašao drsko na zabavi.,fac,0,0,32,ad_mode,ob_dir + ad_mode + ad_measure,interrogative pronouns
,inter-stimulus,canvas.Screen,2_1_2,,,,,,response,629.2999999284802,149637.29999995232,149739.3,149781.4,150410.69999992847,150604.79999995232,2025-02-01T12:20:56.311Z,150640.8,a8Z-qgkUcx,incremental,jednostavno-test,679df971131ae225e46b4282,participant,hcpib7hgm6m5ssxy,,,mousedown,Kako je Ivan požalio što se ponašao na zabavi?,Ivan je požalio što se ponašao drsko na zabavi.,fac,0,0,32,ad_mode,ob_dir + ad_mode + ad_measure,interrogative pronouns
,Sequence,flow.Sequence,2_1,,,,,,completion,14492.361999928486,135883.69999992847,135918.338,135918.338,150410.69999992847,150605.39999997616,2025-02-01T12:20:56.311Z,150640.8,a8Z-qgkUcx,incremental,jednostavno-test,679df971131ae225e46b4282,participant,hcpib7hgm6m5ssxy,,,,Kako je Ivan požalio što se ponašao na zabavi?,Ivan je požalio što se ponašao drsko na zabavi.,fac,0,0,32,ad_mode,ob_dir + ad_mode + ad_measure,interrogative pronouns
,context,canvas.Screen,2_2_0_0,,,,,,response,2706.2000000000116,150605.89999997616,150631.366,150640.8,153347,153548.39999997616,2025-02-01T12:20:59.255Z,153585.428,a8Z-qgkUcx,incremental,jednostavno-test,679df971131ae225e46b4282,participant,hcpib7hgm6m5ssxy,,,click,"Tko, zanima ih, što će kupiti za vjenčani dar?",Zanima ih što će Matej kupiti za vjenčani dar.,iq,0,0,0,sub,sub + ob,interrogative pronouns
,Timer frame,html.Frame,2_2_0,,,,,,,2907.999999952328,150605.5,150631.366,150640.8,153548.79999995232,153548.89999997616,2025-02-01T12:20:59.255Z,153585.428,a8Z-qgkUcx,incremental,jednostavno-test,679df971131ae225e46b4282,participant,hcpib7hgm6m5ssxy,,,,"Tko, zanima ih, što će kupiti za vjenčani dar?",Zanima ih što će Matej kupiti za vjenčani dar.,iq,0,0,0,sub,sub + ob,interrogative pronouns
,stimulus,canvas.Screen,2_2_1_0,,,,,,response,1772.5719999999856,153549.39999997616,153585.428,153585.428,155358,155550.39999997616,2025-02-01T12:21:01.256Z,155588.1,a8Z-qgkUcx,incremental,jednostavno-test,679df971131ae225e46b4282,participant,hcpib7hgm6m5ssxy,,1,click @1,"Tko, zanima ih, što će kupiti za vjenčani dar?",Zanima ih što će Matej kupiti za vjenčani dar.,iq,0,0,0,sub,sub + ob,interrogative pronouns
,Timer frame,html.Frame,2_2_1,,,,,,,1965.27199992846,153549,153585.428,153585.428,155550.69999992847,155550.89999997616,2025-02-01T12:21:01.257Z,155588.1,a8Z-qgkUcx,incremental,jednostavno-test,679df971131ae225e46b4282,participant,hcpib7hgm6m5ssxy,,,,"Tko, zanima ih, što će kupiti za vjenčani dar?",Zanima ih što će Matej kupiti za vjenčani dar.,iq,0,0,0,sub,sub + ob,interrogative pronouns
,inter-stimulus,canvas.Screen,2_2_2,,,,,,response,2640.500000023836,155551,155588.03,155588.1,158228.60000002384,158412.69999992847,2025-02-01T12:21:04.119Z,158458.4,a8Z-qgkUcx,incremental,jednostavno-test,679df971131ae225e46b4282,participant,hcpib7hgm6m5ssxy,,,mousedown,"Tko, zanima ih, što će kupiti za vjenčani dar?",Zanima ih što će Matej kupiti za vjenčani dar.,iq,0,0,0,sub,sub + ob,interrogative pronouns
,Sequence,flow.Sequence,2_2,,,,,,completion,7587.8000000238535,150605.5,150631.366,150640.8,158228.60000002384,158413.10000002384,2025-02-01T12:21:04.119Z,158458.4,a8Z-qgkUcx,incremental,jednostavno-test,679df971131ae225e46b4282,participant,hcpib7hgm6m5ssxy,,,,"Tko, zanima ih, što će kupiti za vjenčani dar?",Zanima ih što će Matej kupiti za vjenčani dar.,iq,0,0,0,sub,sub + ob,interrogative pronouns
,context,canvas.Screen,2_3_0_0,,,,,,response,2207.2000000238477,158413.69999992847,158454.652,158458.4,160665.60000002384,160850.19999992847,2025-02-01T12:21:06.556Z,160878.8,a8Z-qgkUcx,incremental,jednostavno-test,679df971131ae225e46b4282,participant,hcpib7hgm6m5ssxy,,,click,"Što, učitelj je pitao, kome treba ponovno objasniti?",Učitelj je pitao kome treba ponovno objasniti novo pravilo..,iq,0,36,5,ob_indir,ob_dir + ob_indir,interrogative pronouns
,Timer frame,html.Frame,2_3_0,,,,,,,2391.999999976164,158413.39999997616,158454.652,158458.4,160850.39999997616,160850.60000002384,2025-02-01T12:21:06.557Z,160878.8,a8Z-qgkUcx,incremental,jednostavno-test,679df971131ae225e46b4282,participant,hcpib7hgm6m5ssxy,,,,"Što, učitelj je pitao, kome treba ponovno objasniti?",Učitelj je pitao kome treba ponovno objasniti novo pravilo..,iq,0,36,5,ob_indir,ob_dir + ob_indir,interrogative pronouns
,stimulus,canvas.Screen,2_3_1_0,,,,,,response,2698.2000000000116,160851.19999992847,160878.662,160878.8,163577,163752.60000002384,2025-02-01T12:21:09.459Z,163798.7,a8Z-qgkUcx,incremental,jednostavno-test,679df971131ae225e46b4282,participant,hcpib7hgm6m5ssxy,,1,click @1,"Što, učitelj je pitao, kome treba ponovno objasniti?",Učitelj je pitao kome treba ponovno objasniti novo pravilo..,iq,0,36,5,ob_indir,ob_dir + ob_indir,interrogative pronouns
,Timer frame,html.Frame,2_3_1,,,,,,,2874.2000000000116,160850.89999997616,160878.662,160878.8,163753,163753.19999992847,2025-02-01T12:21:09.459Z,163798.7,a8Z-qgkUcx,incremental,jednostavno-test,679df971131ae225e46b4282,participant,hcpib7hgm6m5ssxy,,,,"Što, učitelj je pitao, kome treba ponovno objasniti?",Učitelj je pitao kome treba ponovno objasniti novo pravilo..,iq,0,36,5,ob_indir,ob_dir + ob_indir,interrogative pronouns
,inter-stimulus,canvas.Screen,2_3_2,,,,,,response,2039.2999999999884,163753.29999995232,163798.696,163798.7,165838,166035.19999992847,2025-02-01T12:21:11.741Z,166067.8,a8Z-qgkUcx,incremental,jednostavno-test,679df971131ae225e46b4282,participant,hcpib7hgm6m5ssxy,,,mousedown,"Što, učitelj je pitao, kome treba ponovno objasniti?",Učitelj je pitao kome treba ponovno objasniti novo pravilo..,iq,0,36,5,ob_indir,ob_dir + ob_indir,interrogative pronouns
,Sequence,flow.Sequence,2_3,,,,,,completion,7379.600000000006,158413.29999995232,158454.652,158458.4,165838,166035.69999992847,2025-02-01T12:21:11.742Z,166067.8,a8Z-qgkUcx,incremental,jednostavno-test,679df971131ae225e46b4282,participant,hcpib7hgm6m5ssxy,,,,"Što, učitelj je pitao, kome treba ponovno objasniti?",Učitelj je pitao kome treba ponovno objasniti novo pravilo..,iq,0,36,5,ob_indir,ob_dir + ob_indir,interrogative pronouns
,context,canvas.Screen,2_4_0_0,,,,,,response,3098.8000000238535,166036.29999995232,166065.276,166067.8,169166.60000002384,169359.79999995232,2025-02-01T12:21:15.066Z,169396.3,a8Z-qgkUcx,incremental,jednostavno-test,679df971131ae225e46b4282,participant,hcpib7hgm6m5ssxy,,,click,Morat ću raditi u tim uvjetima u kojim baš sam pitao kako se ponašati.,Pitao sam kako se ponašati u takvim uvjetima.,iq,0,0,18,ad,ob + ad,relative pronouns
,Timer frame,html.Frame,2_4_0,,,,,,,3292.09999997617,166036,166065.276,166067.8,169359.89999997616,169360.19999992847,2025-02-01T12:21:15.066Z,169396.3,a8Z-qgkUcx,incremental,jednostavno-test,679df971131ae225e46b4282,participant,hcpib7hgm6m5ssxy,,,,Morat ću raditi u tim uvjetima u kojim baš sam pitao kako se ponašati.,Pitao sam kako se ponašati u takvim uvjetima.,iq,0,0,18,ad,ob + ad,relative pronouns
,stimulus,canvas.Screen,2_4_1_0,,,,,,response,3192.7000000000116,169360.69999992847,169396.262,169396.3,172589,172713.79999995232,2025-02-01T12:21:18.420Z,172743.9,a8Z-qgkUcx,incremental,jednostavno-test,679df971131ae225e46b4282,participant,hcpib7hgm6m5ssxy,,1,click @1,Morat ću raditi u tim uvjetima u kojim baš sam pitao kako se ponašati.,Pitao sam kako se ponašati u takvim uvjetima.,iq,0,0,18,ad,ob + ad,relative pronouns
,Timer frame,html.Frame,2_4_1,,,,,,,3317.8000000238535,169360.29999995232,169396.262,169396.3,172714.10000002384,172714.29999995232,2025-02-01T12:21:18.420Z,172743.9,a8Z-qgkUcx,incremental,jednostavno-test,679df971131ae225e46b4282,participant,hcpib7hgm6m5ssxy,,,,Morat ću raditi u tim uvjetima u kojim baš sam pitao kako se ponašati.,Pitao sam kako se ponašati u takvim uvjetima.,iq,0,0,18,ad,ob + ad,relative pronouns
,inter-stimulus,canvas.Screen,2_4_2,,,,,,response,2697.999999976164,172714.39999997616,172743.728,172743.9,175441.89999997616,175633.79999995232,2025-02-01T12:21:21.340Z,175680,a8Z-qgkUcx,incremental,jednostavno-test,679df971131ae225e46b4282,participant,hcpib7hgm6m5ssxy,,,mousedown,Morat ću raditi u tim uvjetima u kojim baš sam pitao kako se ponašati.,Pitao sam kako se ponašati u takvim uvjetima.,iq,0,0,18,ad,ob + ad,relative pronouns
,Sequence,flow.Sequence,2_4,,,,,,completion,9374.09999997617,166035.89999997616,166065.276,166067.8,175441.89999997616,175634.19999992847,2025-02-01T12:21:21.340Z,175680,a8Z-qgkUcx,incremental,jednostavno-test,679df971131ae225e46b4282,participant,hcpib7hgm6m5ssxy,,,,Morat ću raditi u tim uvjetima u kojim baš sam pitao kako se ponašati.,Pitao sam kako se ponašati u takvim uvjetima.,iq,0,0,18,ad,ob + ad,relative pronouns
,context,canvas.Screen,2_5_0_0,,,,,,response,1304.5,175634.60000002384,175677.116,175680,176984.5,177168.5,2025-02-01T12:21:22.874Z,177188.962,a8Z-qgkUcx,incremental,jednostavno-test,679df971131ae225e46b4282,participant,hcpib7hgm6m5ssxy,,,click,Pronašao sam tu stvar koju znam da je Marina izgubila.,Znam da je Marina izgubila ključeve.,fac,0,,41,ob,ob + ob,non-interrogative component
,Timer frame,html.Frame,2_5_0,,,,,,,1488.8999999761581,175634.29999995232,175677.116,175680,177168.89999997616,177169.10000002384,2025-02-01T12:21:22.875Z,177188.962,a8Z-qgkUcx,incremental,jednostavno-test,679df971131ae225e46b4282,participant,hcpib7hgm6m5ssxy,,,,Pronašao sam tu stvar koju znam da je Marina izgubila.,Znam da je Marina izgubila ključeve.,fac,0,,41,ob,ob + ob,non-interrogative component
,stimulus,canvas.Screen,2_5_1_0,,,,,,response,4582.737999928475,177169.5,177188.962,177188.962,181771.69999992847,181946.89999997616,2025-02-01T12:21:27.653Z,181993.2,a8Z-qgkUcx,incremental,jednostavno-test,679df971131ae225e46b4282,participant,hcpib7hgm6m5ssxy,,1,click @1,Pronašao sam tu stvar koju znam da je Marina izgubila.,Znam da je Marina izgubila ključeve.,fac,0,,41,ob,ob + ob,non-interrogative component
,Timer frame,html.Frame,2_5_1,,,,,,,4758.237999928475,177169.29999995232,177188.962,177188.962,181947.19999992847,181947.29999995232,2025-02-01T12:21:27.653Z,181993.2,a8Z-qgkUcx,incremental,jednostavno-test,679df971131ae225e46b4282,participant,hcpib7hgm6m5ssxy,,,,Pronašao sam tu stvar koju znam da je Marina izgubila.,Znam da je Marina izgubila ključeve.,fac,0,,41,ob,ob + ob,non-interrogative component
,inter-stimulus,canvas.Screen,2_5_2,,,,,,response,3457.1999999761465,181947.60000002384,181976.464,181993.2,185450.39999997616,185634.79999995232,2025-02-01T12:21:31.341Z,185672.2,a8Z-qgkUcx,incremental,jednostavno-test,679df971131ae225e46b4282,participant,hcpib7hgm6m5ssxy,,,mousedown,Pronašao sam tu stvar koju znam da je Marina izgubila.,Znam da je Marina izgubila ključeve.,fac,0,,41,ob,ob + ob,non-interrogative component
,Sequence,flow.Sequence,2_5,,,,,,completion,9770.399999976158,175634.29999995232,175677.116,175680,185450.39999997616,185635.19999992847,2025-02-01T12:21:31.341Z,185672.2,a8Z-qgkUcx,incremental,jednostavno-test,679df971131ae225e46b4282,participant,hcpib7hgm6m5ssxy,,,,Pronašao sam tu stvar koju znam da je Marina izgubila.,Znam da je Marina izgubila ključeve.,fac,0,,41,ob,ob + ob,non-interrogative component
,context,canvas.Screen,2_6_0_0,,,,,,response,3525.1999999761465,185635.79999995232,185659.72,185672.2,189197.39999997616,189390.29999995232,2025-02-01T12:21:35.096Z,189427.5,a8Z-qgkUcx,incremental,jednostavno-test,679df971131ae225e46b4282,participant,hcpib7hgm6m5ssxy,,,click,"Tko, tvoja prijateljica pitala je, gdje radi?",Tvoja prijateljica pitala je gdje radi moj brat.,iq,0,0,2,sub,sub + ob,interrogative pronouns
,Timer frame,html.Frame,2_6_0,,,,,,,3718.2999999999884,185635.39999997616,185659.72,185672.2,189390.5,189390.60000002384,2025-02-01T12:21:35.097Z,189427.5,a8Z-qgkUcx,incremental,jednostavno-test,679df971131ae225e46b4282,participant,hcpib7hgm6m5ssxy,,,,"Tko, tvoja prijateljica pitala je, gdje radi?",Tvoja prijateljica pitala je gdje radi moj brat.,iq,0,0,2,sub,sub + ob,interrogative pronouns
,stimulus,canvas.Screen,2_6_1_0,,,,,,response,3107.899999976158,189391,189427.398,189427.5,192535.39999997616,192694.69999992847,2025-02-01T12:21:38.401Z,192723.33,a8Z-qgkUcx,incremental,jednostavno-test,679df971131ae225e46b4282,participant,hcpib7hgm6m5ssxy,,1,click @1,"Tko, tvoja prijateljica pitala je, gdje radi?",Tvoja prijateljica pitala je gdje radi moj brat.,iq,0,0,2,sub,sub + ob,interrogative pronouns
,Timer frame,html.Frame,2_6_1,,,,,,,3267.5,189390.69999992847,189427.398,189427.5,192695,192695.19999992847,2025-02-01T12:21:38.401Z,192723.33,a8Z-qgkUcx,incremental,jednostavno-test,679df971131ae225e46b4282,participant,hcpib7hgm6m5ssxy,,,,"Tko, tvoja prijateljica pitala je, gdje radi?",Tvoja prijateljica pitala je gdje radi moj brat.,iq,0,0,2,sub,sub + ob,interrogative pronouns
,inter-stimulus,canvas.Screen,2_6_2,,,,,,response,1222.3699999284872,192695.29999995232,192723.33,192723.33,193945.69999992847,194141.5,2025-02-01T12:21:39.848Z,194175.4,a8Z-qgkUcx,incremental,jednostavno-test,679df971131ae225e46b4282,participant,hcpib7hgm6m5ssxy,,,mousedown,"Tko, tvoja prijateljica pitala je, gdje radi?",Tvoja prijateljica pitala je gdje radi moj brat.,iq,0,0,2,sub,sub + ob,interrogative pronouns
,Sequence,flow.Sequence,2_6,,,,,,completion,8273.499999928463,185635.29999995232,185659.72,185672.2,193945.69999992847,194141.89999997616,2025-02-01T12:21:39.848Z,194175.4,a8Z-qgkUcx,incremental,jednostavno-test,679df971131ae225e46b4282,participant,hcpib7hgm6m5ssxy,,,,"Tko, tvoja prijateljica pitala je, gdje radi?",Tvoja prijateljica pitala je gdje radi moj brat.,iq,0,0,2,sub,sub + ob,interrogative pronouns
,context,canvas.Screen,2_7_0_0,,,,,,response,2800.100000000006,194142.29999995232,194173.272,194175.4,196975.5,197151.29999995232,2025-02-01T12:21:42.857Z,197179.83,a8Z-qgkUcx,incremental,jednostavno-test,679df971131ae225e46b4282,participant,hcpib7hgm6m5ssxy,,,click,U hladnjaku je bio sladoled koji je otac pitao za koga da kupi u trgovini.,Otac je pitao za koga da kupi sladoled u trgovini.,iq,0,0,15,ob_indir,ob_dir + ob_indir,relative pronouns
,Timer frame,html.Frame,2_7_0,,,,,,,2976.2000000238477,194142,194173.272,194175.4,197151.60000002384,197151.79999995232,2025-02-01T12:21:42.858Z,197179.83,a8Z-qgkUcx,incremental,jednostavno-test,679df971131ae225e46b4282,participant,hcpib7hgm6m5ssxy,,,,U hladnjaku je bio sladoled koji je otac pitao za koga da kupi u trgovini.,Otac je pitao za koga da kupi sladoled u trgovini.,iq,0,0,15,ob_indir,ob_dir + ob_indir,relative pronouns
,stimulus,canvas.Screen,2_7_1_0,,,,,,response,5904.170000000013,197152.19999992847,197179.83,197179.83,203084,203226.69999992847,2025-02-01T12:21:48.933Z,203280.752,a8Z-qgkUcx,incremental,jednostavno-test,679df971131ae225e46b4282,participant,hcpib7hgm6m5ssxy,,1,click @1,U hladnjaku je bio sladoled koji je otac pitao za koga da kupi u trgovini.,Otac je pitao za koga da kupi sladoled u trgovini.,iq,0,0,15,ob_indir,ob_dir + ob_indir,relative pronouns
,Timer frame,html.Frame,2_7_1,,,,,,,6047.069999976171,197152,197179.83,197179.83,203226.89999997616,203227.19999992847,2025-02-01T12:21:48.933Z,203280.752,a8Z-qgkUcx,incremental,jednostavno-test,679df971131ae225e46b4282,participant,hcpib7hgm6m5ssxy,,,,U hladnjaku je bio sladoled koji je otac pitao za koga da kupi u trgovini.,Otac je pitao za koga da kupi sladoled u trgovini.,iq,0,0,15,ob_indir,ob_dir + ob_indir,relative pronouns
,inter-stimulus,canvas.Screen,2_7_2,,,,,,response,1564.0479999523086,203227.29999995232,203280.752,203280.752,204844.79999995232,205012.69999992847,2025-02-01T12:21:50.719Z,205047.348,a8Z-qgkUcx,incremental,jednostavno-test,679df971131ae225e46b4282,participant,hcpib7hgm6m5ssxy,,,mousedown,U hladnjaku je bio sladoled koji je otac pitao za koga da kupi u trgovini.,Otac je pitao za koga da kupi sladoled u trgovini.,iq,0,0,15,ob_indir,ob_dir + ob_indir,relative pronouns
,Sequence,flow.Sequence,2_7,,,,,,completion,10669.399999952322,194142,194173.272,194175.4,204844.79999995232,205013.29999995232,2025-02-01T12:21:50.719Z,205047.348,a8Z-qgkUcx,incremental,jednostavno-test,679df971131ae225e46b4282,participant,hcpib7hgm6m5ssxy,,,,U hladnjaku je bio sladoled koji je otac pitao za koga da kupi u trgovini.,Otac je pitao za koga da kupi sladoled u trgovini.,iq,0,0,15,ob_indir,ob_dir + ob_indir,relative pronouns
,context,canvas.Screen,2_8_0_0,,,,,,response,2059.451999952318,205013.79999995232,205047.348,205047.348,207106.79999995232,207273.5,2025-02-01T12:21:52.980Z,207328.2,a8Z-qgkUcx,incremental,jednostavno-test,679df971131ae225e46b4282,participant,hcpib7hgm6m5ssxy,,,click,"Kome, učitelj je pitao, što treba ponovno objasniti?",Učitelj je pitao što treba učenicima ponovno objasniti..,iq,0,36,4,ob_dir,ob_dir + ob_indir,interrogative pronouns
,Timer frame,html.Frame,2_8_0,,,,,,,2226.451999952318,205013.5,205047.348,205047.348,207273.79999995232,207274,2025-02-01T12:21:52.980Z,207328.2,a8Z-qgkUcx,incremental,jednostavno-test,679df971131ae225e46b4282,participant,hcpib7hgm6m5ssxy,,,,"Kome, učitelj je pitao, što treba ponovno objasniti?",Učitelj je pitao što treba učenicima ponovno objasniti..,iq,0,36,4,ob_dir,ob_dir + ob_indir,interrogative pronouns
,stimulus,canvas.Screen,2_8_1_0,,,,,,response,2473.6999999761465,207274.39999997616,207311.49,207328.2,209801.89999997616,209902.69999992847,2025-02-01T12:21:55.609Z,209931.8,a8Z-qgkUcx,incremental,jednostavno-test,679df971131ae225e46b4282,participant,hcpib7hgm6m5ssxy,,1,click @1,"Kome, učitelj je pitao, što treba ponovno objasniti?",Učitelj je pitao što treba učenicima ponovno objasniti..,iq,0,36,4,ob_dir,ob_dir + ob_indir,interrogative pronouns
,Timer frame,html.Frame,2_8_1,,,,,,,2574.7999999999884,207274.10000002384,207311.49,207328.2,209903,209903.10000002384,2025-02-01T12:21:55.609Z,209931.8,a8Z-qgkUcx,incremental,jednostavno-test,679df971131ae225e46b4282,participant,hcpib7hgm6m5ssxy,,,,"Kome, učitelj je pitao, što treba ponovno objasniti?",Učitelj je pitao što treba učenicima ponovno objasniti..,iq,0,36,4,ob_dir,ob_dir + ob_indir,interrogative pronouns
,inter-stimulus,canvas.Screen,2_8_2,,,,,,response,1572.5999999761698,209903.19999992847,209931.662,209931.8,211504.39999997616,211702.79999995232,2025-02-01T12:21:57.409Z,211734.1,a8Z-qgkUcx,incremental,jednostavno-test,679df971131ae225e46b4282,participant,hcpib7hgm6m5ssxy,,,mousedown,"Kome, učitelj je pitao, što treba ponovno objasniti?",Učitelj je pitao što treba učenicima ponovno objasniti..,iq,0,36,4,ob_dir,ob_dir + ob_indir,interrogative pronouns
,Sequence,flow.Sequence,2_8,,,,,,completion,6457.05199997616,205013.39999997616,205047.348,205047.348,211504.39999997616,211703.19999992847,2025-02-01T12:21:57.409Z,211734.1,a8Z-qgkUcx,incremental,jednostavno-test,679df971131ae225e46b4282,participant,hcpib7hgm6m5ssxy,,,,"Kome, učitelj je pitao, što treba ponovno objasniti?",Učitelj je pitao što treba učenicima ponovno objasniti..,iq,0,36,4,ob_dir,ob_dir + ob_indir,interrogative pronouns
,context,canvas.Screen,2_9_0_0,,,,,,response,2206.7999999761523,211703.79999995232,211731.728,211734.1,213940.89999997616,214133.89999997616,2025-02-01T12:21:59.840Z,214161.984,a8Z-qgkUcx,incremental,jednostavno-test,679df971131ae225e46b4282,participant,hcpib7hgm6m5ssxy,,,click,Izišao sam iz tog stana u kojem sam pitao što je Anton ostavio.,Pitao sam Antona što je ostavio u mom stanu.,iq,0,0,17,ad,ob + ad,relative pronouns
,Timer frame,html.Frame,2_9_0,,,,,,,2400.0999999284686,211703.29999995232,211731.728,211734.1,214134.19999992847,214134.39999997616,2025-02-01T12:21:59.840Z,214161.984,a8Z-qgkUcx,incremental,jednostavno-test,679df971131ae225e46b4282,participant,hcpib7hgm6m5ssxy,,,,Izišao sam iz tog stana u kojem sam pitao što je Anton ostavio.,Pitao sam Antona što je ostavio u mom stanu.,iq,0,0,17,ad,ob + ad,relative pronouns
,stimulus,canvas.Screen,2_9_1_0,,,,,,response,3238.9159999761614,214134.79999995232,214161.984,214161.984,217400.89999997616,217542.29999995232,2025-02-01T12:22:03.248Z,217597.162,a8Z-qgkUcx,incremental,jednostavno-test,679df971131ae225e46b4282,participant,hcpib7hgm6m5ssxy,,1,click @1,Izišao sam iz tog stana u kojem sam pitao što je Anton ostavio.,Pitao sam Antona što je ostavio u mom stanu.,iq,0,0,17,ad,ob + ad,relative pronouns
,Timer frame,html.Frame,2_9_1,,,,,,,3380.5160000000033,214134.60000002384,214161.984,214161.984,217542.5,217542.69999992847,2025-02-01T12:22:03.249Z,217597.162,a8Z-qgkUcx,incremental,jednostavno-test,679df971131ae225e46b4282,participant,hcpib7hgm6m5ssxy,,,,Izišao sam iz tog stana u kojem sam pitao što je Anton ostavio.,Pitao sam Antona što je ostavio u mom stanu.,iq,0,0,17,ad,ob + ad,relative pronouns
,inter-stimulus,canvas.Screen,2_9_2,,,,,,response,1472.637999952305,217542.79999995232,217597.162,217597.162,219069.79999995232,219261.79999995232,2025-02-01T12:22:04.968Z,219283.3,a8Z-qgkUcx,incremental,jednostavno-test,679df971131ae225e46b4282,participant,hcpib7hgm6m5ssxy,,,mousedown,Izišao sam iz tog stana u kojem sam pitao što je Anton ostavio.,Pitao sam Antona što je ostavio u mom stanu.,iq,0,0,17,ad,ob + ad,relative pronouns
,Sequence,flow.Sequence,2_9,,,,,,completion,7335.6999999523105,211703.19999992847,211731.728,211734.1,219069.79999995232,219262.19999992847,2025-02-01T12:22:04.968Z,219283.3,a8Z-qgkUcx,incremental,jednostavno-test,679df971131ae225e46b4282,participant,hcpib7hgm6m5ssxy,,,,Izišao sam iz tog stana u kojem sam pitao što je Anton ostavio.,Pitao sam Antona što je ostavio u mom stanu.,iq,0,0,17,ad,ob + ad,relative pronouns
,context,canvas.Screen,2_10_0_0,,,,,,response,3383.499999952328,219262.79999995232,219280.428,219283.3,222666.79999995232,222848.5,2025-02-01T12:22:08.554Z,222880.122,a8Z-qgkUcx,incremental,jednostavno-test,679df971131ae225e46b4282,participant,hcpib7hgm6m5ssxy,,,click,Gdje Tvrtko neće moći provesti vikend s obitelji?,Tvrtko neće moći provesti vikend s obitelji na Bahamima.,neg,,,22,ad_place,ad_time + ad_place,interrogative pronouns
,Timer frame,html.Frame,2_10_0,,,,,,,3565.3000000238535,219262.60000002384,219280.428,219283.3,222848.60000002384,222848.60000002384,2025-02-01T12:22:08.555Z,222880.122,a8Z-qgkUcx,incremental,jednostavno-test,679df971131ae225e46b4282,participant,hcpib7hgm6m5ssxy,,,,Gdje Tvrtko neće moći provesti vikend s obitelji?,Tvrtko neće moći provesti vikend s obitelji na Bahamima.,neg,,,22,ad_place,ad_time + ad_place,interrogative pronouns
,stimulus,canvas.Screen,2_10_1_0,,,,,,response,2858.1779999523133,222848.79999995232,222880.122,222880.122,225738.29999995232,225905.79999995232,2025-02-01T12:22:11.612Z,225943.6,a8Z-qgkUcx,incremental,jednostavno-test,679df971131ae225e46b4282,participant,hcpib7hgm6m5ssxy,,7,click @7,Gdje Tvrtko neće moći provesti vikend s obitelji?,Tvrtko neće moći provesti vikend s obitelji na Bahamima.,neg,,,22,ad_place,ad_time + ad_place,interrogative pronouns
,Timer frame,html.Frame,2_10_1,,,,,,,3025.978000023839,222848.69999992847,222880.122,222880.122,225906.10000002384,225906.29999995232,2025-02-01T12:22:11.612Z,225943.6,a8Z-qgkUcx,incremental,jednostavno-test,679df971131ae225e46b4282,participant,hcpib7hgm6m5ssxy,,,,Gdje Tvrtko neće moći provesti vikend s obitelji?,Tvrtko neće moći provesti vikend s obitelji na Bahamima.,neg,,,22,ad_place,ad_time + ad_place,interrogative pronouns
,inter-stimulus,canvas.Screen,2_10_2,,,,,,response,2290.5999999284686,225906.39999997616,225926.832,225943.6,228234.19999992847,228465.19999992847,2025-02-01T12:22:14.171Z,228522.3,a8Z-qgkUcx,incremental,jednostavno-test,679df971131ae225e46b4282,participant,hcpib7hgm6m5ssxy,,,mousedown,Gdje Tvrtko neće moći provesti vikend s obitelji?,Tvrtko neće moći provesti vikend s obitelji na Bahamima.,neg,,,22,ad_place,ad_time + ad_place,interrogative pronouns
,Sequence,flow.Sequence,2_10,,,,,,completion,8950.899999928486,219262.5,219280.428,219283.3,228234.19999992847,228465.60000002384,2025-02-01T12:22:14.172Z,228522.3,a8Z-qgkUcx,incremental,jednostavno-test,679df971131ae225e46b4282,participant,hcpib7hgm6m5ssxy,,,,Gdje Tvrtko neće moći provesti vikend s obitelji?,Tvrtko neće moći provesti vikend s obitelji na Bahamima.,neg,,,22,ad_place,ad_time + ad_place,interrogative pronouns
,context,canvas.Screen,2_11_0_0,,,,,,response,3526.3000000238535,228465.89999997616,228510.164,228522.3,232048.60000002384,232251.89999997616,2025-02-01T12:22:17.958Z,232286.33,a8Z-qgkUcx,incremental,jednostavno-test,679df971131ae225e46b4282,participant,hcpib7hgm6m5ssxy,,,click,Kamo na ljeto ide Slavko na work and travel program?,Na ljeto Slavko ide u USA na work and travel program.,iq,0,0,8,ad,ad + ad+ ad,interrogative pronouns
,Timer frame,html.Frame,2_11_0,,,,,,,3730.09999997617,228465.69999992847,228510.164,228522.3,232252.39999997616,232252.60000002384,2025-02-01T12:22:17.959Z,232286.33,a8Z-qgkUcx,incremental,jednostavno-test,679df971131ae225e46b4282,participant,hcpib7hgm6m5ssxy,,,,Kamo na ljeto ide Slavko na work and travel program?,Na ljeto Slavko ide u USA na work and travel program.,iq,0,0,8,ad,ad + ad+ ad,interrogative pronouns
,stimulus,canvas.Screen,2_11_1_0,,,,,,response,2766.7700000238547,232253,232286.33,232286.33,235053.10000002384,235230.39999997616,2025-02-01T12:22:20.937Z,235274.6,a8Z-qgkUcx,incremental,jednostavno-test,679df971131ae225e46b4282,participant,hcpib7hgm6m5ssxy,,7,click @7,Kamo na ljeto ide Slavko na work and travel program?,Na ljeto Slavko ide u USA na work and travel program.,iq,0,0,8,ad,ad + ad+ ad,interrogative pronouns
,Timer frame,html.Frame,2_11_1,,,,,,,2944.2700000238547,232252.69999992847,232286.33,232286.33,235230.60000002384,235230.89999997616,2025-02-01T12:22:20.937Z,235274.6,a8Z-qgkUcx,incremental,jednostavno-test,679df971131ae225e46b4282,participant,hcpib7hgm6m5ssxy,,,,Kamo na ljeto ide Slavko na work and travel program?,Na ljeto Slavko ide u USA na work and travel program.,iq,0,0,8,ad,ad + ad+ ad,interrogative pronouns
,inter-stimulus,canvas.Screen,2_11_2,,,,,,response,1498.1999999523105,235231,235274.53,235274.6,236772.79999995232,236973.69999992847,2025-02-01T12:22:22.680Z,237007.864,a8Z-qgkUcx,incremental,jednostavno-test,679df971131ae225e46b4282,participant,hcpib7hgm6m5ssxy,,,mousedown,Kamo na ljeto ide Slavko na work and travel program?,Na ljeto Slavko ide u USA na work and travel program.,iq,0,0,8,ad,ad + ad+ ad,interrogative pronouns
,Sequence,flow.Sequence,2_11,,,,,,completion,8250.499999952328,228465.69999992847,228510.164,228522.3,236772.79999995232,236974.10000002384,2025-02-01T12:22:22.680Z,237007.864,a8Z-qgkUcx,incremental,jednostavno-test,679df971131ae225e46b4282,participant,hcpib7hgm6m5ssxy,,,,Kamo na ljeto ide Slavko na work and travel program?,Na ljeto Slavko ide u USA na work and travel program.,iq,0,0,8,ad,ad + ad+ ad,interrogative pronouns
,context,canvas.Screen,2_12_0_0,,,,,,response,5444.2360000238405,236974.5,237007.864,237007.864,242452.10000002384,242637.79999995232,2025-02-01T12:22:28.344Z,242690.2,a8Z-qgkUcx,incremental,jednostavno-test,679df971131ae225e46b4282,participant,hcpib7hgm6m5ssxy,,,click,Koliko je moja sestra platila taksi od zračne luke.,Moja sestra platila je taksi od zračne luke.,gf,0,0,46,filler,filler,filler
,Timer frame,html.Frame,2_12_0,,,,,,,5630.2360000238405,236974.29999995232,237007.864,237007.864,242638.10000002384,242638.29999995232,2025-02-01T12:22:28.344Z,242690.2,a8Z-qgkUcx,incremental,jednostavno-test,679df971131ae225e46b4282,participant,hcpib7hgm6m5ssxy,,,,Koliko je moja sestra platila taksi od zračne luke.,Moja sestra platila je taksi od zračne luke.,gf,0,0,46,filler,filler,filler
,stimulus,canvas.Screen,2_12_1_0,,,,,,response,5311.40000002383,242638.69999992847,242673.498,242690.2,248001.60000002384,248145.39999997616,2025-02-01T12:22:33.851Z,248172.93,a8Z-qgkUcx,incremental,jednostavno-test,679df971131ae225e46b4282,participant,hcpib7hgm6m5ssxy,,1,click @1,Koliko je moja sestra platila taksi od zračne luke.,Moja sestra platila je taksi od zračne luke.,gf,0,0,46,filler,filler,filler
,Timer frame,html.Frame,2_12_1,,,,,,,5455.499999928463,242638.39999997616,242673.498,242690.2,248145.69999992847,248145.79999995232,2025-02-01T12:22:33.852Z,248172.93,a8Z-qgkUcx,incremental,jednostavno-test,679df971131ae225e46b4282,participant,hcpib7hgm6m5ssxy,,,,Koliko je moja sestra platila taksi od zračne luke.,Moja sestra platila je taksi od zračne luke.,gf,0,0,46,filler,filler,filler
,inter-stimulus,canvas.Screen,2_12_2,,,,,,response,1072.2699999284814,248145.89999997616,248172.93,248172.93,249245.19999992847,249429.10000002384,2025-02-01T12:22:35.135Z,249474.9,a8Z-qgkUcx,incremental,jednostavno-test,679df971131ae225e46b4282,participant,hcpib7hgm6m5ssxy,,,mousedown,Koliko je moja sestra platila taksi od zračne luke.,Moja sestra platila je taksi od zračne luke.,gf,0,0,46,filler,filler,filler
,Sequence,flow.Sequence,2_12,,,,,,completion,12237.335999928473,236974.19999992847,237007.864,237007.864,249245.19999992847,249429.39999997616,2025-02-01T12:22:35.135Z,249474.9,a8Z-qgkUcx,incremental,jednostavno-test,679df971131ae225e46b4282,participant,hcpib7hgm6m5ssxy,,,,Koliko je moja sestra platila taksi od zračne luke.,Moja sestra platila je taksi od zračne luke.,gf,0,0,46,filler,filler,filler
,context,canvas.Screen,2_13_0_0,,,,,,response,4350.499999976164,249429.89999997616,249472.878,249474.9,253825.39999997616,253978.60000002384,2025-02-01T12:22:39.685Z,254013.128,a8Z-qgkUcx,incremental,jednostavno-test,679df971131ae225e46b4282,participant,hcpib7hgm6m5ssxy,,,click,Kog moja obitelj nije povela na odmor u Bugarsku?,Moja obitelj nije povela mog brata na odmor u Bugarsku.,neg,,,20,ob,ob + ob,interrogative pronouns
,Timer frame,html.Frame,2_13_0,,,,,,,4503.999999976164,249429.69999992847,249472.878,249474.9,253978.89999997616,253979,2025-02-01T12:22:39.685Z,254013.128,a8Z-qgkUcx,incremental,jednostavno-test,679df971131ae225e46b4282,participant,hcpib7hgm6m5ssxy,,,,Kog moja obitelj nije povela na odmor u Bugarsku?,Moja obitelj nije povela mog brata na odmor u Bugarsku.,neg,,,20,ob,ob + ob,interrogative pronouns
,stimulus,canvas.Screen,2_13_1_0,,,,,,response,3751.1719999523193,253979.5,254013.128,254013.128,257764.29999995232,257941.19999992847,2025-02-01T12:22:43.647Z,257968.698,a8Z-qgkUcx,incremental,jednostavno-test,679df971131ae225e46b4282,participant,hcpib7hgm6m5ssxy,,7,click @7,Kog moja obitelj nije povela na odmor u Bugarsku?,Moja obitelj nije povela mog brata na odmor u Bugarsku.,neg,,,20,ob,ob + ob,interrogative pronouns
,Timer frame,html.Frame,2_13_1,,,,,,,3928.372000000003,253979.19999992847,254013.128,254013.128,257941.5,257941.69999992847,2025-02-01T12:22:43.648Z,257968.698,a8Z-qgkUcx,incremental,jednostavno-test,679df971131ae225e46b4282,participant,hcpib7hgm6m5ssxy,,,,Kog moja obitelj nije povela na odmor u Bugarsku?,Moja obitelj nije povela mog brata na odmor u Bugarsku.,neg,,,20,ob,ob + ob,interrogative pronouns
,inter-stimulus,canvas.Screen,2_13_2,,,,,,response,2366.201999976154,257941.79999995232,257968.698,257968.698,260334.89999997616,260518.69999992847,2025-02-01T12:22:46.225Z,260551.928,a8Z-qgkUcx,incremental,jednostavno-test,679df971131ae225e46b4282,participant,hcpib7hgm6m5ssxy,,,mousedown,Kog moja obitelj nije povela na odmor u Bugarsku?,Moja obitelj nije povela mog brata na odmor u Bugarsku.,neg,,,20,ob,ob + ob,interrogative pronouns
,Sequence,flow.Sequence,2_13,,,,,,completion,10859.999999976164,249429.5,249472.878,249474.9,260334.89999997616,260519,2025-02-01T12:22:46.225Z,260551.928,a8Z-qgkUcx,incremental,jednostavno-test,679df971131ae225e46b4282,participant,hcpib7hgm6m5ssxy,,,,Kog moja obitelj nije povela na odmor u Bugarsku?,Moja obitelj nije povela mog brata na odmor u Bugarsku.,neg,,,20,ob,ob + ob,interrogative pronouns
,context,canvas.Screen,2_14_0_0,,,,,,response,2412.0719999999856,260519.60000002384,260551.928,260551.928,262964,263148.7999999523,2025-02-01T12:22:48.855Z,263185.388,a8Z-qgkUcx,incremental,jednostavno-test,679df971131ae225e46b4282,participant,hcpib7hgm6m5ssxy,,,click,Gdje je djeca?,Moj mlađi brat i sestra su bili u dvorištu.,nf,,,55,filler,filler,filler
,Timer frame,html.Frame,2_14_0,,,,,,,2597.1720000238274,260519.29999995232,260551.928,260551.928,263149.10000002384,263149.2999999523,2025-02-01T12:22:48.855Z,263185.388,a8Z-qgkUcx,incremental,jednostavno-test,679df971131ae225e46b4282,participant,hcpib7hgm6m5ssxy,,,,Gdje je djeca?,Moj mlađi brat i sestra su bili u dvorištu.,nf,,,55,filler,filler,filler
,stimulus,canvas.Screen,2_14_1_0,,,,,,response,3616.8119999284972,263149.7999999523,263185.388,263185.388,266802.1999999285,266979.6999999285,2025-02-01T12:22:52.686Z,267007.2,a8Z-qgkUcx,incremental,jednostavno-test,679df971131ae225e46b4282,participant,hcpib7hgm6m5ssxy,,7,click @7,Gdje je djeca?,Moj mlađi brat i sestra su bili u dvorištu.,nf,,,55,filler,filler,filler
,Timer frame,html.Frame,2_14_1,,,,,,,3794.7120000238647,263149.39999997616,263185.388,263185.388,266980.10000002384,266980.2999999523,2025-02-01T12:22:52.686Z,267007.2,a8Z-qgkUcx,incremental,jednostavno-test,679df971131ae225e46b4282,participant,hcpib7hgm6m5ssxy,,,,Gdje je djeca?,Moj mlađi brat i sestra su bili u dvorištu.,nf,,,55,filler,filler,filler
,inter-stimulus,canvas.Screen,2_14_2,,,,,,response,2623.40000002383,266980.60000002384,267007.162,267007.2,269630.60000002384,269823.1999999285,2025-02-01T12:22:55.529Z,269868.9,a8Z-qgkUcx,incremental,jednostavno-test,679df971131ae225e46b4282,participant,hcpib7hgm6m5ssxy,,,mousedown,Gdje je djeca?,Moj mlađi brat i sestra su bili u dvorištu.,nf,,,55,filler,filler,filler
,Sequence,flow.Sequence,2_14,,,,,,completion,9078.672000023827,260519.19999992847,260551.928,260551.928,269630.60000002384,269823.7999999523,2025-02-01T12:22:55.530Z,269868.9,a8Z-qgkUcx,incremental,jednostavno-test,679df971131ae225e46b4282,participant,hcpib7hgm6m5ssxy,,,,Gdje je djeca?,Moj mlađi brat i sestra su bili u dvorištu.,nf,,,55,filler,filler,filler
,context,canvas.Screen,2_15_0_0,,,,,,response,988.399999952293,269824.39999997616,269857.086,269868.9,270857.2999999523,271024.6999999285,2025-02-01T12:22:56.731Z,271053.6,a8Z-qgkUcx,incremental,jednostavno-test,679df971131ae225e46b4282,participant,hcpib7hgm6m5ssxy,,,click,Moj se prijatelj ne može sjetiti gdje živi Karina.,Karina živi u Osijeku.,gf,,0,49,filler,filler,filler
,Timer frame,html.Frame,2_15_0,,,,,,,1156.2000000238186,269824,269857.086,269868.9,271025.10000002384,271025.2999999523,2025-02-01T12:22:56.731Z,271053.6,a8Z-qgkUcx,incremental,jednostavno-test,679df971131ae225e46b4282,participant,hcpib7hgm6m5ssxy,,,,Moj se prijatelj ne može sjetiti gdje živi Karina.,Karina živi u Osijeku.,gf,,0,49,filler,filler,filler
,stimulus,canvas.Screen,2_15_1_0,,,,,,response,4007.7999999761814,271025.6999999285,271053.43,271053.6,275061.39999997616,275239.1999999285,2025-02-01T12:23:00.945Z,275299.4,a8Z-qgkUcx,incremental,jednostavno-test,679df971131ae225e46b4282,participant,hcpib7hgm6m5ssxy,,7,click @7,Moj se prijatelj ne može sjetiti gdje živi Karina.,Karina živi u Osijeku.,gf,,0,49,filler,filler,filler
,Timer frame,html.Frame,2_15_1,,,,,,,4185.900000000023,271025.5,271053.43,271053.6,275239.5,275239.7999999523,2025-02-01T12:23:00.946Z,275299.4,a8Z-qgkUcx,incremental,jednostavno-test,679df971131ae225e46b4282,participant,hcpib7hgm6m5ssxy,,,,Moj se prijatelj ne može sjetiti gdje živi Karina.,Karina živi u Osijeku.,gf,,0,49,filler,filler,filler
,inter-stimulus,canvas.Screen,2_15_2,,,,,,response,1595.2000000238186,275240,275282.762,275299.4,276894.60000002384,277109,2025-02-01T12:23:02.815Z,277149.326,a8Z-qgkUcx,incremental,jednostavno-test,679df971131ae225e46b4282,participant,hcpib7hgm6m5ssxy,,,mousedown,Moj se prijatelj ne može sjetiti gdje živi Karina.,Karina živi u Osijeku.,gf,,0,49,filler,filler,filler
,Sequence,flow.Sequence,2_15,,,,,,completion,7025.700000023819,269824,269857.086,269868.9,276894.60000002384,277109.60000002384,2025-02-01T12:23:02.816Z,277149.326,a8Z-qgkUcx,incremental,jednostavno-test,679df971131ae225e46b4282,participant,hcpib7hgm6m5ssxy,,,,Moj se prijatelj ne može sjetiti gdje živi Karina.,Karina živi u Osijeku.,gf,,0,49,filler,filler,filler
,context,canvas.Screen,2_16_0_0,,,,,,response,1180.173999999999,277110.1999999285,277149.326,277149.326,278329.5,278531.5,2025-02-01T12:23:04.238Z,278575.6,a8Z-qgkUcx,incremental,jednostavno-test,679df971131ae225e46b4282,participant,hcpib7hgm6m5ssxy,,,click,Majka je primijetila da se Slobodan vratio kući.,Slobodan se vratio kući.,gf,0,0,44,filler,filler,filler
,Timer frame,html.Frame,2_16_0,,,,,,,1382.4739999523154,277109.89999997616,277149.326,277149.326,278531.7999999523,278532.10000002384,2025-02-01T12:23:04.238Z,278575.6,a8Z-qgkUcx,incremental,jednostavno-test,679df971131ae225e46b4282,participant,hcpib7hgm6m5ssxy,,,,Majka je primijetila da se Slobodan vratio kući.,Slobodan se vratio kući.,gf,0,0,44,filler,filler,filler
,stimulus,canvas.Screen,2_16_1_0,,,,,,response,3407.2999999761814,278532.5,278575.588,278575.6,281982.89999997616,282155.60000002384,2025-02-01T12:23:07.862Z,282196,a8Z-qgkUcx,incremental,jednostavno-test,679df971131ae225e46b4282,participant,hcpib7hgm6m5ssxy,,7,click @7,Majka je primijetila da se Slobodan vratio kući.,Slobodan se vratio kući.,gf,0,0,44,filler,filler,filler
,Timer frame,html.Frame,2_16_1,,,,,,,3580.4000000000233,278532.10000002384,278575.588,278575.6,282156,282156.1999999285,2025-02-01T12:23:07.862Z,282196,a8Z-qgkUcx,incremental,jednostavno-test,679df971131ae225e46b4282,participant,hcpib7hgm6m5ssxy,,,,Majka je primijetila da se Slobodan vratio kući.,Slobodan se vratio kući.,gf,0,0,44,filler,filler,filler
,inter-stimulus,canvas.Screen,2_16_2,,,,,,response,1538.3999999761581,282156.1999999285,282179.356,282196,283734.39999997616,283925.1999999285,2025-02-01T12:23:09.631Z,283955.6,a8Z-qgkUcx,incremental,jednostavno-test,679df971131ae225e46b4282,participant,hcpib7hgm6m5ssxy,,,mousedown,Majka je primijetila da se Slobodan vratio kući.,Slobodan se vratio kući.,gf,0,0,44,filler,filler,filler
,Sequence,flow.Sequence,2_16,,,,,,completion,6585.073999976157,277109.6999999285,277149.326,277149.326,283734.39999997616,283925.5,2025-02-01T12:23:09.632Z,283955.6,a8Z-qgkUcx,incremental,jednostavno-test,679df971131ae225e46b4282,participant,hcpib7hgm6m5ssxy,,,,Majka je primijetila da se Slobodan vratio kući.,Slobodan se vratio kući.,gf,0,0,44,filler,filler,filler
,context,canvas.Screen,2_17_0_0,,,,,,response,3820.1999999523396,283925.7999999523,283945.93,283955.6,287775.7999999523,287974.39999997616,2025-02-01T12:23:13.680Z,288005.4,a8Z-qgkUcx,incremental,jednostavno-test,679df971131ae225e46b4282,participant,hcpib7hgm6m5ssxy,,,click,"Kako, Klara milsi, da se Petar tog dana vozio kući?",Klara misli da se Petar tog dana vrlo brzo vozio kući.,fac,,,40,ad_mode,ob + ad_mode,interrogative pronouns
,Timer frame,html.Frame,2_17_0,,,,,,,4018.9000000000233,283925.6999999285,283945.93,283955.6,287974.5,287974.6999999285,2025-02-01T12:23:13.681Z,288005.4,a8Z-qgkUcx,incremental,jednostavno-test,679df971131ae225e46b4282,participant,hcpib7hgm6m5ssxy,,,,"Kako, Klara milsi, da se Petar tog dana vozio kući?",Klara misli da se Petar tog dana vrlo brzo vozio kući.,fac,,,40,ad_mode,ob + ad_mode,interrogative pronouns
,stimulus,canvas.Screen,2_17_1_0,,,,,,response,4818.799999928451,287975,288005.398,288005.4,292824.1999999285,293001.89999997616,2025-02-01T12:23:18.708Z,293029.2,a8Z-qgkUcx,incremental,jednostavno-test,679df971131ae225e46b4282,participant,hcpib7hgm6m5ssxy,,1,click @1,"Kako, Klara milsi, da se Petar tog dana vozio kući?",Klara misli da se Petar tog dana vrlo brzo vozio kući.,fac,,,40,ad_mode,ob + ad_mode,interrogative pronouns
,Timer frame,html.Frame,2_17_1,,,,,,,4996.499999976135,287974.7999999523,288005.398,288005.4,293001.89999997616,293002,2025-02-01T12:23:18.708Z,293029.2,a8Z-qgkUcx,incremental,jednostavno-test,679df971131ae225e46b4282,participant,hcpib7hgm6m5ssxy,,,,"Kako, Klara milsi, da se Petar tog dana vozio kući?",Klara misli da se Petar tog dana vrlo brzo vozio kući.,fac,,,40,ad_mode,ob + ad_mode,interrogative pronouns
,inter-stimulus,canvas.Screen,2_17_2,,,,,,response,1847.9000000238302,293002.10000002384,293029.062,293029.2,294877.10000002384,295065.7999999523,2025-02-01T12:23:20.772Z,295098.3,a8Z-qgkUcx,incremental,jednostavno-test,679df971131ae225e46b4282,participant,hcpib7hgm6m5ssxy,,,mousedown,"Kako, Klara milsi, da se Petar tog dana vozio kući?",Klara misli da se Petar tog dana vrlo brzo vozio kući.,fac,,,40,ad_mode,ob + ad_mode,interrogative pronouns
,Sequence,flow.Sequence,2_17,,,,,,completion,10921.500000023865,283925.60000002384,283945.93,283955.6,294877.10000002384,295066.10000002384,2025-02-01T12:23:20.772Z,295098.3,a8Z-qgkUcx,incremental,jednostavno-test,679df971131ae225e46b4282,participant,hcpib7hgm6m5ssxy,,,,"Kako, Klara milsi, da se Petar tog dana vozio kući?",Klara misli da se Petar tog dana vrlo brzo vozio kući.,fac,,,40,ad_mode,ob + ad_mode,interrogative pronouns
,context,canvas.Screen,2_18_0_0,,,,,,response,3573.999999952328,295066.39999997616,295095.784,295098.3,298672.2999999523,298822,2025-02-01T12:23:24.528Z,298868.4,a8Z-qgkUcx,incremental,jednostavno-test,679df971131ae225e46b4282,participant,hcpib7hgm6m5ssxy,,,click,"Što, zanima ih, tko će kupiti za vjenčani dar?",Zanima ih tko će kupiti posuđe za vjenčani dar.,iq,0,0,1,ob,sub + ob,interrogative pronouns
,Timer frame,html.Frame,2_18_0,,,,,,,3723.999999952328,295066.1999999285,295095.784,295098.3,298822.2999999523,298822.5,2025-02-01T12:23:24.528Z,298868.4,a8Z-qgkUcx,incremental,jednostavno-test,679df971131ae225e46b4282,participant,hcpib7hgm6m5ssxy,,,,"Što, zanima ih, tko će kupiti za vjenčani dar?",Zanima ih tko će kupiti posuđe za vjenčani dar.,iq,0,0,1,ob,sub + ob,interrogative pronouns
,stimulus,canvas.Screen,2_18_1_0,,,,,,response,3573.499999976135,298822.89999997616,298851.698,298868.4,302441.89999997616,302582.7999999523,2025-02-01T12:23:28.289Z,302629.9,a8Z-qgkUcx,incremental,jednostavno-test,679df971131ae225e46b4282,participant,hcpib7hgm6m5ssxy,,1,click @1,"Što, zanima ih, tko će kupiti za vjenčani dar?",Zanima ih tko će kupiti posuđe za vjenčani dar.,iq,0,0,1,ob,sub + ob,interrogative pronouns
,Timer frame,html.Frame,2_18_1,,,,,,,3714.5999999999767,298822.60000002384,298851.698,298868.4,302583,302583.1999999285,2025-02-01T12:23:28.289Z,302629.9,a8Z-qgkUcx,incremental,jednostavno-test,679df971131ae225e46b4282,participant,hcpib7hgm6m5ssxy,,,,"Što, zanima ih, tko će kupiti za vjenčani dar?",Zanima ih tko će kupiti posuđe za vjenčani dar.,iq,0,0,1,ob,sub + ob,interrogative pronouns
,inter-stimulus,canvas.Screen,2_18_2,,,,,,response,729.5999999999767,302583.2999999523,302613.256,302629.9,303359.5,303574.6999999285,2025-02-01T12:23:29.281Z,303623,a8Z-qgkUcx,incremental,jednostavno-test,679df971131ae225e46b4282,participant,hcpib7hgm6m5ssxy,,,mousedown,"Što, zanima ih, tko će kupiti za vjenčani dar?",Zanima ih tko će kupiti posuđe za vjenčani dar.,iq,0,0,1,ob,sub + ob,interrogative pronouns
,Sequence,flow.Sequence,2_18,,,,,,completion,8261.200000000012,295066.1999999285,295095.784,295098.3,303359.5,303575.1999999285,2025-02-01T12:23:29.281Z,303623,a8Z-qgkUcx,incremental,jednostavno-test,679df971131ae225e46b4282,participant,hcpib7hgm6m5ssxy,,,,"Što, zanima ih, tko će kupiti za vjenčani dar?",Zanima ih tko će kupiti posuđe za vjenčani dar.,iq,0,0,1,ob,sub + ob,interrogative pronouns
,context,canvas.Screen,2_19_0_0,,,,,,response,4251.399999976158,303575.89999997616,303613.194,303623,307874.39999997616,308066.2999999523,2025-02-01T12:23:33.772Z,308104.13,a8Z-qgkUcx,incremental,jednostavno-test,679df971131ae225e46b4282,participant,hcpib7hgm6m5ssxy,,,click,Što sam izčitao od te Necronomiconu?,Našao sam nekakav Necronomicon na tavanu.,nf,,,53,filler,filler,filler
,Timer frame,html.Frame,2_19_0,,,,,,,4443.600000023842,303575.60000002384,303613.194,303623,308066.60000002384,308066.89999997616,2025-02-01T12:23:33.773Z,308104.13,a8Z-qgkUcx,incremental,jednostavno-test,679df971131ae225e46b4282,participant,hcpib7hgm6m5ssxy,,,,Što sam izčitao od te Necronomiconu?,Našao sam nekakav Necronomicon na tavanu.,nf,,,53,filler,filler,filler
,stimulus,canvas.Screen,2_19_1_0,,,,,,response,3114.470000023837,308067.5,308104.13,308104.13,311218.60000002384,311335.1999999285,2025-02-01T12:23:37.041Z,311373.4,a8Z-qgkUcx,incremental,jednostavno-test,679df971131ae225e46b4282,participant,hcpib7hgm6m5ssxy,,1,click @1,Što sam izčitao od te Necronomiconu?,Našao sam nekakav Necronomicon na tavanu.,nf,,,53,filler,filler,filler
,Timer frame,html.Frame,2_19_1,,,,,,,3231.6699999523116,308067.10000002384,308104.13,308104.13,311335.7999999523,311335.89999997616,2025-02-01T12:23:37.042Z,311373.4,a8Z-qgkUcx,incremental,jednostavno-test,679df971131ae225e46b4282,participant,hcpib7hgm6m5ssxy,,,,Što sam izčitao od te Necronomiconu?,Našao sam nekakav Necronomicon na tavanu.,nf,,,53,filler,filler,filler
,inter-stimulus,canvas.Screen,2_19_2,,,,,,response,1013.2000000238186,311336.1999999285,311373.382,311373.4,312386.60000002384,312545.10000002384,2025-02-01T12:23:38.251Z,312591.3,a8Z-qgkUcx,incremental,jednostavno-test,679df971131ae225e46b4282,participant,hcpib7hgm6m5ssxy,,,mousedown,Što sam izčitao od te Necronomiconu?,Našao sam nekakav Necronomicon na tavanu.,nf,,,53,filler,filler,filler
,Sequence,flow.Sequence,2_19,,,,,,completion,8763.600000023842,303575.39999997616,303613.194,303623,312386.60000002384,312545.2999999523,2025-02-01T12:23:38.251Z,312591.3,a8Z-qgkUcx,incremental,jednostavno-test,679df971131ae225e46b4282,participant,hcpib7hgm6m5ssxy,,,,Što sam izčitao od te Necronomiconu?,Našao sam nekakav Necronomicon na tavanu.,nf,,,53,filler,filler,filler
,context,canvas.Screen,2_20_0_0,,,,,,response,2557.3000000238535,312545.7999999523,312573.352,312591.3,315148.60000002384,315298.89999997616,2025-02-01T12:23:41.005Z,315328,a8Z-qgkUcx,incremental,jednostavno-test,679df971131ae225e46b4282,participant,hcpib7hgm6m5ssxy,,,click,Ovo je arhipelag na kojem Tvrtko neće moći provesti vikend s obitelji.,Tvrtko neće moći provesti vikend s obitelji na Bahamima.,neg,0,0,28,ad_place,ad_time + ad_place,relative pronouns
,Timer frame,html.Frame,2_20_0,,,,,,,2707.899999928486,312545.5,312573.352,312591.3,315299.1999999285,315299.5,2025-02-01T12:23:41.006Z,315328,a8Z-qgkUcx,incremental,jednostavno-test,679df971131ae225e46b4282,participant,hcpib7hgm6m5ssxy,,,,Ovo je arhipelag na kojem Tvrtko neće moći provesti vikend s obitelji.,Tvrtko neće moći provesti vikend s obitelji na Bahamima.,neg,0,0,28,ad_place,ad_time + ad_place,relative pronouns
,stimulus,canvas.Screen,2_20_1_0,,,,,,response,4542.600000023842,315300,315327.99,315328,319870.60000002384,319997.6999999285,2025-02-01T12:23:45.704Z,320050.4,a8Z-qgkUcx,incremental,jednostavno-test,679df971131ae225e46b4282,participant,hcpib7hgm6m5ssxy,,1,click @1,Ovo je arhipelag na kojem Tvrtko neće moći provesti vikend s obitelji.,Tvrtko neće moći provesti vikend s obitelji na Bahamima.,neg,0,0,28,ad_place,ad_time + ad_place,relative pronouns
,Timer frame,html.Frame,2_20_1,,,,,,,4669.899999976158,315299.6999999285,315327.99,315328,319997.89999997616,319998.1999999285,2025-02-01T12:23:45.704Z,320050.4,a8Z-qgkUcx,incremental,jednostavno-test,679df971131ae225e46b4282,participant,hcpib7hgm6m5ssxy,,,,Ovo je arhipelag na kojem Tvrtko neće moći provesti vikend s obitelji.,Tvrtko neće moći provesti vikend s obitelji na Bahamima.,neg,0,0,28,ad_place,ad_time + ad_place,relative pronouns
,inter-stimulus,canvas.Screen,2_20_2,,,,,,response,1338.899999952293,319998.2999999523,320033.696,320050.4,321389.2999999523,321582.2999999523,2025-02-01T12:23:47.288Z,321619,a8Z-qgkUcx,incremental,jednostavno-test,679df971131ae225e46b4282,participant,hcpib7hgm6m5ssxy,,,mousedown,Ovo je arhipelag na kojem Tvrtko neće moći provesti vikend s obitelji.,Tvrtko neće moći provesti vikend s obitelji na Bahamima.,neg,0,0,28,ad_place,ad_time + ad_place,relative pronouns
,Sequence,flow.Sequence,2_20,,,,,,completion,8797.999999952328,312545.39999997616,312573.352,312591.3,321389.2999999523,321582.7999999523,2025-02-01T12:23:47.289Z,321619,a8Z-qgkUcx,incremental,jednostavno-test,679df971131ae225e46b4282,participant,hcpib7hgm6m5ssxy,,,,Ovo je arhipelag na kojem Tvrtko neće moći provesti vikend s obitelji.,Tvrtko neće moći provesti vikend s obitelji na Bahamima.,neg,0,0,28,ad_place,ad_time + ad_place,relative pronouns
,context,canvas.Screen,2_21_0_0,,,,,,response,2181.5,321583.1999999285,321600.338,321619,323800.5,323958.39999997616,2025-02-01T12:23:49.664Z,324013.7,a8Z-qgkUcx,incremental,jednostavno-test,679df971131ae225e46b4282,participant,hcpib7hgm6m5ssxy,,,click,Koliko slonova Ivo je rekao da je vidio na safariju?,Ivo je rekao da je vidio dva slona na safariju.,fac,,,36,ad_measure,ob_dir + ad_mode + ad_measure,interrogative pronouns
,Timer frame,html.Frame,2_21_0,,,,,,,2339.5,321583,321600.338,321619,323958.5,323958.6999999285,2025-02-01T12:23:49.665Z,324013.7,a8Z-qgkUcx,incremental,jednostavno-test,679df971131ae225e46b4282,participant,hcpib7hgm6m5ssxy,,,,Koliko slonova Ivo je rekao da je vidio na safariju?,Ivo je rekao da je vidio dva slona na safariju.,fac,,,36,ad_measure,ob_dir + ad_mode + ad_measure,interrogative pronouns
,stimulus,canvas.Screen,2_21_1_0,,,,,,response,4108.599999952305,323959.1999999285,324013.63,324013.7,328122.2999999523,328316.39999997616,2025-02-01T12:23:54.022Z,328352.228,a8Z-qgkUcx,incremental,jednostavno-test,679df971131ae225e46b4282,participant,hcpib7hgm6m5ssxy,,1,click @1,Koliko slonova Ivo je rekao da je vidio na safariju?,Ivo je rekao da je vidio dva slona na safariju.,fac,,,36,ad_measure,ob_dir + ad_mode + ad_measure,interrogative pronouns
,Timer frame,html.Frame,2_21_1,,,,,,,4302.999999928463,323958.7999999523,324013.63,324013.7,328316.6999999285,328316.89999997616,2025-02-01T12:23:54.023Z,328352.228,a8Z-qgkUcx,incremental,jednostavno-test,679df971131ae225e46b4282,participant,hcpib7hgm6m5ssxy,,,,Koliko slonova Ivo je rekao da je vidio na safariju?,Ivo je rekao da je vidio dva slona na safariju.,fac,,,36,ad_measure,ob_dir + ad_mode + ad_measure,interrogative pronouns
,inter-stimulus,canvas.Screen,2_21_2,,,,,,response,4250.5719999523135,328316.89999997616,328352.228,328352.228,332602.7999999523,332793.7999999523,2025-02-01T12:23:58.500Z,332840.8,a8Z-qgkUcx,incremental,jednostavno-test,679df971131ae225e46b4282,participant,hcpib7hgm6m5ssxy,,,mousedown,Koliko slonova Ivo je rekao da je vidio na safariju?,Ivo je rekao da je vidio dva slona na safariju.,fac,,,36,ad_measure,ob_dir + ad_mode + ad_measure,interrogative pronouns
,Sequence,flow.Sequence,2_21,,,,,,completion,10983.799999952316,321582.89999997616,321600.338,321619,332602.7999999523,332794.2999999523,2025-02-01T12:23:58.500Z,332840.8,a8Z-qgkUcx,incremental,jednostavno-test,679df971131ae225e46b4282,participant,hcpib7hgm6m5ssxy,,,,Koliko slonova Ivo je rekao da je vidio na safariju?,Ivo je rekao da je vidio dva slona na safariju.,fac,,,36,ad_measure,ob_dir + ad_mode + ad_measure,interrogative pronouns
,context,canvas.Screen,2_22_0_0,,,,,,response,1155.3000000238535,332794.7999999523,332835.382,332840.8,333996.10000002384,334156,2025-02-01T12:23:59.862Z,334184.1,a8Z-qgkUcx,incremental,jednostavno-test,679df971131ae225e46b4282,participant,hcpib7hgm6m5ssxy,,,click,Nego volim pivo više vino.,Više volim vino nego pivo.,nf,,,56,filler,filler,filler
,Timer frame,html.Frame,2_22_0,,,,,,,1315.499999952328,332794.5,332835.382,332840.8,334156.2999999523,334156.5,2025-02-01T12:23:59.862Z,334184.1,a8Z-qgkUcx,incremental,jednostavno-test,679df971131ae225e46b4282,participant,hcpib7hgm6m5ssxy,,,,Nego volim pivo više vino.,Više volim vino nego pivo.,nf,,,56,filler,filler,filler
,stimulus,canvas.Screen,2_22_1_0,,,,,,response,3580.500000023865,334157,334184.098,334184.1,337764.60000002384,337916.6999999285,2025-02-01T12:24:03.623Z,337961,a8Z-qgkUcx,incremental,jednostavno-test,679df971131ae225e46b4282,participant,hcpib7hgm6m5ssxy,,1,click @1,Nego volim pivo više vino.,Više volim vino nego pivo.,nf,,,56,filler,filler,filler
,Timer frame,html.Frame,2_22_1,,,,,,,3732.7999999761814,334156.60000002384,334184.098,334184.1,337916.89999997616,337917,2025-02-01T12:24:03.623Z,337961,a8Z-qgkUcx,incremental,jednostavno-test,679df971131ae225e46b4282,participant,hcpib7hgm6m5ssxy,,,,Nego volim pivo više vino.,Više volim vino nego pivo.,nf,,,56,filler,filler,filler
,inter-stimulus,canvas.Screen,2_22_2,,,,,,response,1497.2999999523163,337917.10000002384,337944.398,337961,339458.2999999523,339669.1999999285,2025-02-01T12:24:05.375Z,339704.8,a8Z-qgkUcx,incremental,jednostavno-test,679df971131ae225e46b4282,participant,hcpib7hgm6m5ssxy,,,mousedown,Nego volim pivo više vino.,Više volim vino nego pivo.,nf,,,56,filler,filler,filler
,Sequence,flow.Sequence,2_22,,,,,,completion,6617.499999952328,332794.39999997616,332835.382,332840.8,339458.2999999523,339669.6999999285,2025-02-01T12:24:05.376Z,339704.8,a8Z-qgkUcx,incremental,jednostavno-test,679df971131ae225e46b4282,participant,hcpib7hgm6m5ssxy,,,,Nego volim pivo više vino.,Više volim vino nego pivo.,nf,,,56,filler,filler,filler
,context,canvas.Screen,2_23_0_0,,,,,,response,3082.999999952328,339670.2999999523,339694.264,339704.8,342787.7999999523,342988,2025-02-01T12:24:08.694Z,343042.6,a8Z-qgkUcx,incremental,jednostavno-test,679df971131ae225e46b4282,participant,hcpib7hgm6m5ssxy,,,click,Koga je Ivo rekao da je nazvao u petak?,Ivo je rekao da je svog prijatelja nazvao u petak.,fac,,,34,ob_dir,ob_dir + ad_mode + ad_measure,interrogative pronouns
,Timer frame,html.Frame,2_23_0,,,,,,,3283.399999928486,339670,339694.264,339704.8,342988.1999999285,342988.2999999523,2025-02-01T12:24:08.694Z,343042.6,a8Z-qgkUcx,incremental,jednostavno-test,679df971131ae225e46b4282,participant,hcpib7hgm6m5ssxy,,,,Koga je Ivo rekao da je nazvao u petak?,Ivo je rekao da je svog prijatelja nazvao u petak.,fac,,,34,ob_dir,ob_dir + ad_mode + ad_measure,interrogative pronouns
,stimulus,canvas.Screen,2_23_1_0,,,,,,response,4243.299999976181,342988.6999999285,343025.796,343042.6,347285.89999997616,347411.89999997616,2025-02-01T12:24:13.118Z,347440.8,a8Z-qgkUcx,incremental,jednostavno-test,679df971131ae225e46b4282,participant,hcpib7hgm6m5ssxy,,1,click @1,Koga je Ivo rekao da je nazvao u petak?,Ivo je rekao da je svog prijatelja nazvao u petak.,fac,,,34,ob_dir,ob_dir + ad_mode + ad_measure,interrogative pronouns
,Timer frame,html.Frame,2_23_1,,,,,,,4369.500000023865,342988.39999997616,343025.796,343042.6,347412.10000002384,347412.2999999523,2025-02-01T12:24:13.118Z,347440.8,a8Z-qgkUcx,incremental,jednostavno-test,679df971131ae225e46b4282,participant,hcpib7hgm6m5ssxy,,,,Koga je Ivo rekao da je nazvao u petak?,Ivo je rekao da je svog prijatelja nazvao u petak.,fac,,,34,ob_dir,ob_dir + ad_mode + ad_measure,interrogative pronouns
,inter-stimulus,canvas.Screen,2_23_2,,,,,,response,3298.2000000000116,347412.5,347440.796,347440.8,350739,350906,2025-02-01T12:24:16.612Z,350943.7,a8Z-qgkUcx,incremental,jednostavno-test,679df971131ae225e46b4282,participant,hcpib7hgm6m5ssxy,,,mousedown,Koga je Ivo rekao da je nazvao u petak?,Ivo je rekao da je svog prijatelja nazvao u petak.,fac,,,34,ob_dir,ob_dir + ad_mode + ad_measure,interrogative pronouns
,Sequence,flow.Sequence,2_23,,,,,,completion,11034.200000000012,339669.89999997616,339694.264,339704.8,350739,350906.39999997616,2025-02-01T12:24:16.612Z,350943.7,a8Z-qgkUcx,incremental,jednostavno-test,679df971131ae225e46b4282,participant,hcpib7hgm6m5ssxy,,,,Koga je Ivo rekao da je nazvao u petak?,Ivo je rekao da je svog prijatelja nazvao u petak.,fac,,,34,ob_dir,ob_dir + ad_mode + ad_measure,interrogative pronouns
,context,canvas.Screen,2_24_0_0,,,,,,response,2541.5999999523046,350906.89999997616,350940.66,350943.7,353485.2999999523,353654.89999997616,2025-02-01T12:24:19.361Z,353689.7,a8Z-qgkUcx,incremental,jednostavno-test,679df971131ae225e46b4282,participant,hcpib7hgm6m5ssxy,,,click,"Što, kurir je razjasnio, kada mora dostaviti?",Kurir je razjasnio kada mora dostaviti paket.,iq,,0,6,ob,ob + ad,interrogative pronouns
,Timer frame,html.Frame,2_24_0,,,,,,,2711.499999928463,350906.60000002384,350940.66,350943.7,353655.1999999285,353655.2999999523,2025-02-01T12:24:19.361Z,353689.7,a8Z-qgkUcx,incremental,jednostavno-test,679df971131ae225e46b4282,participant,hcpib7hgm6m5ssxy,,,,"Što, kurir je razjasnio, kada mora dostaviti?",Kurir je razjasnio kada mora dostaviti paket.,iq,,0,6,ob,ob + ad,interrogative pronouns
,stimulus,canvas.Screen,2_24_1_0,,,,,,response,2866.499999928463,353656,353689.65,353689.7,356556.1999999285,356754.7999999523,2025-02-01T12:24:22.461Z,356844.694,a8Z-qgkUcx,incremental,jednostavno-test,679df971131ae225e46b4282,participant,hcpib7hgm6m5ssxy,,1,click @1,"Što, kurir je razjasnio, kada mora dostaviti?",Kurir je razjasnio kada mora dostaviti paket.,iq,,0,6,ob,ob + ad,interrogative pronouns
,Timer frame,html.Frame,2_24_1,,,,,,,3066.90000002383,353655.60000002384,353689.65,353689.7,356756.60000002384,356756.6999999285,2025-02-01T12:24:22.463Z,356844.694,a8Z-qgkUcx,incremental,jednostavno-test,679df971131ae225e46b4282,participant,hcpib7hgm6m5ssxy,,,,"Što, kurir je razjasnio, kada mora dostaviti?",Kurir je razjasnio kada mora dostaviti paket.,iq,,0,6,ob,ob + ad,interrogative pronouns
,inter-stimulus,canvas.Screen,2_24_2,,,,,,response,829.9060000238242,356756.89999997616,356844.694,356844.694,357674.60000002384,357850,2025-02-01T12:24:23.559Z,357896,a8Z-qgkUcx,incremental,jednostavno-test,679df971131ae225e46b4282,participant,hcpib7hgm6m5ssxy,,,mousedown,"Što, kurir je razjasnio, kada mora dostaviti?",Kurir je razjasnio kada mora dostaviti paket.,iq,,0,6,ob,ob + ad,interrogative pronouns
,Sequence,flow.Sequence,2_24,,,,,,completion,6730.90000002383,350906.5,350940.66,350943.7,357674.60000002384,357856.39999997616,2025-02-01T12:24:23.562Z,357896,a8Z-qgkUcx,incremental,jednostavno-test,679df971131ae225e46b4282,participant,hcpib7hgm6m5ssxy,,,,"Što, kurir je razjasnio, kada mora dostaviti?",Kurir je razjasnio kada mora dostaviti paket.,iq,,0,6,ob,ob + ad,interrogative pronouns
,context,canvas.Screen,2_25_0_0,,,,,,response,2892.1999999284744,357860.7999999523,357894.652,357896,360788.1999999285,360963.60000002384,2025-02-01T12:24:26.670Z,361025.9,a8Z-qgkUcx,incremental,jednostavno-test,679df971131ae225e46b4282,participant,hcpib7hgm6m5ssxy,,,click,Pronašao sam taj uređaj koji mislim da je Marina izgubila.,Mislim da je Marina izgubila laptop.,fac,,,42,ob,ob + ob,non-interrogative component
,Timer frame,html.Frame,2_25_0,,,,,,,3067.7999999523163,357857.60000002384,357894.652,357896,360963.7999999523,360964,2025-02-01T12:24:26.670Z,361025.9,a8Z-qgkUcx,incremental,jednostavno-test,679df971131ae225e46b4282,participant,hcpib7hgm6m5ssxy,,,,Pronašao sam taj uređaj koji mislim da je Marina izgubila.,Mislim da je Marina izgubila laptop.,fac,,,42,ob,ob + ob,non-interrogative component
,stimulus,canvas.Screen,2_25_1_0,,,,,,response,4778.399999952293,360964.39999997616,361009.296,361025.9,365804.2999999523,365935,2025-02-01T12:24:31.641Z,365951.1,a8Z-qgkUcx,incremental,jednostavno-test,679df971131ae225e46b4282,participant,hcpib7hgm6m5ssxy,,1,click @1,Pronašao sam taj uređaj koji mislim da je Marina izgubila.,Mislim da je Marina izgubila laptop.,fac,,,42,ob,ob + ob,non-interrogative component
,Timer frame,html.Frame,2_25_1,,,,,,,4909.299999928451,360964.10000002384,361009.296,361025.9,365935.1999999285,365935.2999999523,2025-02-01T12:24:31.641Z,365951.1,a8Z-qgkUcx,incremental,jednostavno-test,679df971131ae225e46b4282,participant,hcpib7hgm6m5ssxy,,,,Pronašao sam taj uređaj koji mislim da je Marina izgubila.,Mislim da je Marina izgubila laptop.,fac,,,42,ob,ob + ob,non-interrogative component
,inter-stimulus,canvas.Screen,2_25_2,,,,,,response,1480.5999999284977,365935.39999997616,365951.032,365951.1,367431.6999999285,367611.7999999523,2025-02-01T12:24:33.318Z,367636.2,a8Z-qgkUcx,incremental,jednostavno-test,679df971131ae225e46b4282,participant,hcpib7hgm6m5ssxy,,,mousedown,Pronašao sam taj uređaj koji mislim da je Marina izgubila.,Mislim da je Marina izgubila laptop.,fac,,,42,ob,ob + ob,non-interrogative component
,Sequence,flow.Sequence,2_25,,,,,,completion,9535.699999928474,357856.5,357894.652,357896,367431.6999999285,367611.89999997616,2025-02-01T12:24:33.318Z,367636.2,a8Z-qgkUcx,incremental,jednostavno-test,679df971131ae225e46b4282,participant,hcpib7hgm6m5ssxy,,,,Pronašao sam taj uređaj koji mislim da je Marina izgubila.,Mislim da je Marina izgubila laptop.,fac,,,42,ob,ob + ob,non-interrogative component
,context,canvas.Screen,2_26_0_0,,,,,,response,2605.1999999761465,367612.1999999285,367619.5,367636.2,370241.39999997616,370422.89999997616,2025-02-01T12:24:36.129Z,370454.6,a8Z-qgkUcx,incremental,jednostavno-test,679df971131ae225e46b4282,participant,hcpib7hgm6m5ssxy,,,click,Gdje moj bogati ujak drži svoj novac?,Moj bogati ujak drži svoj novac u švicarskoj banci.,gf,,,47,filler,filler,filler
,Timer frame,html.Frame,2_26_0,,,,,,,2786.90000002383,367612,367619.5,367636.2,370423.10000002384,370423.1999999285,2025-02-01T12:24:36.129Z,370454.6,a8Z-qgkUcx,incremental,jednostavno-test,679df971131ae225e46b4282,participant,hcpib7hgm6m5ssxy,,,,Gdje moj bogati ujak drži svoj novac?,Moj bogati ujak drži svoj novac u švicarskoj banci.,gf,,,47,filler,filler,filler
,stimulus,canvas.Screen,2_26_1_0,,,,,,response,2114.0999999284977,370423.6999999285,370437.9,370454.6,372568.6999999285,372744.10000002384,2025-02-01T12:24:38.450Z,372782.2,a8Z-qgkUcx,incremental,jednostavno-test,679df971131ae225e46b4282,participant,hcpib7hgm6m5ssxy,,7,click @7,Gdje moj bogati ujak drži svoj novac?,Moj bogati ujak drži svoj novac u švicarskoj banci.,gf,,,47,filler,filler,filler
,Timer frame,html.Frame,2_26_1,,,,,,,2289.6999999523396,370423.2999999523,370437.9,370454.6,372744.2999999523,372745.1999999285,2025-02-01T12:24:38.451Z,372782.2,a8Z-qgkUcx,incremental,jednostavno-test,679df971131ae225e46b4282,participant,hcpib7hgm6m5ssxy,,,,Gdje moj bogati ujak drži svoj novac?,Moj bogati ujak drži svoj novac u švicarskoj banci.,gf,,,47,filler,filler,filler
,inter-stimulus,canvas.Screen,2_26_2,,,,,,response,2281.7999999999884,372745.5,372782.062,372782.2,375064,375261.1999999285,2025-02-01T12:24:40.967Z,375294.2,a8Z-qgkUcx,incremental,jednostavno-test,679df971131ae225e46b4282,participant,hcpib7hgm6m5ssxy,,,mousedown,Gdje moj bogati ujak drži svoj novac?,Moj bogati ujak drži svoj novac u švicarskoj banci.,gf,,,47,filler,filler,filler
,Sequence,flow.Sequence,2_26,,,,,,completion,7427.799999999988,367612,367619.5,367636.2,375064,375261.39999997616,2025-02-01T12:24:40.968Z,375294.2,a8Z-qgkUcx,incremental,jednostavno-test,679df971131ae225e46b4282,participant,hcpib7hgm6m5ssxy,,,,Gdje moj bogati ujak drži svoj novac?,Moj bogati ujak drži svoj novac u švicarskoj banci.,gf,,,47,filler,filler,filler
,context,canvas.Screen,2_27_0_0,,,,,,response,2315.5999999523046,375261.6999999285,375282.1,375294.2,377609.7999999523,377801.39999997616,2025-02-01T12:24:43.507Z,377847.9,a8Z-qgkUcx,incremental,jednostavno-test,679df971131ae225e46b4282,participant,hcpib7hgm6m5ssxy,,,click,Naručio sam to jelo koje sam pitao tko je jeo u restoranu.,Pitao sam tko je jeo pleskavicu u restoranu.,iq,0,0,11,ob,sub + ob,relative pronouns
,Timer frame,html.Frame,2_27_0,,,,,,,2507.2999999999884,375261.5,375282.1,375294.2,377801.5,377801.6999999285,2025-02-01T12:24:43.508Z,377847.9,a8Z-qgkUcx,incremental,jednostavno-test,679df971131ae225e46b4282,participant,hcpib7hgm6m5ssxy,,,,Naručio sam to jelo koje sam pitao tko je jeo u restoranu.,Pitao sam tko je jeo pleskavicu u restoranu.,iq,0,0,11,ob,sub + ob,relative pronouns
,stimulus,canvas.Screen,2_27_1_0,,,,,,response,8147.899999952293,377802,377797.9,377847.9,385995.7999999523,386205.89999997616,2025-02-01T12:24:51.912Z,386258.9,a8Z-qgkUcx,incremental,jednostavno-test,679df971131ae225e46b4282,participant,hcpib7hgm6m5ssxy,,1,click @1,Naručio sam to jelo koje sam pitao tko je jeo u restoranu.,Pitao sam tko je jeo pleskavicu u restoranu.,iq,0,0,11,ob,sub + ob,relative pronouns
,Timer frame,html.Frame,2_27_1,,,,,,,8360.200000023819,377801.7999999523,377797.9,377847.9,386208.10000002384,386208.60000002384,2025-02-01T12:24:51.915Z,386258.9,a8Z-qgkUcx,incremental,jednostavno-test,679df971131ae225e46b4282,participant,hcpib7hgm6m5ssxy,,,,Naručio sam to jelo koje sam pitao tko je jeo u restoranu.,Pitao sam tko je jeo pleskavicu u restoranu.,iq,0,0,11,ob,sub + ob,relative pronouns
,inter-stimulus,canvas.Screen,2_27_2,,,,,,response,3066.499999976135,386208.89999997616,386242.23,386258.9,389325.39999997616,389539.39999997616,2025-02-01T12:24:55.245Z,389638.6,a8Z-qgkUcx,incremental,jednostavno-test,679df971131ae225e46b4282,participant,hcpib7hgm6m5ssxy,,,mousedown,Naručio sam to jelo koje sam pitao tko je jeo u restoranu.,Pitao sam tko je jeo pleskavicu u restoranu.,iq,0,0,11,ob,sub + ob,relative pronouns
,Sequence,flow.Sequence,2_27,,,,,,completion,14031.199999976147,375261.5,375282.1,375294.2,389325.39999997616,389539.89999997616,2025-02-01T12:24:55.246Z,389638.6,a8Z-qgkUcx,incremental,jednostavno-test,679df971131ae225e46b4282,participant,hcpib7hgm6m5ssxy,,,,Naručio sam to jelo koje sam pitao tko je jeo u restoranu.,Pitao sam tko je jeo pleskavicu u restoranu.,iq,0,0,11,ob,sub + ob,relative pronouns
,context,canvas.Screen,2_28_0_0,,,,,,response,1413.7999999761814,389541.39999997616,389592.1,389638.6,391052.39999997616,391238.7999999523,2025-02-01T12:24:56.945Z,391273.726,a8Z-qgkUcx,incremental,jednostavno-test,679df971131ae225e46b4282,participant,hcpib7hgm6m5ssxy,,,click,Koliko piva Ivan žali što je prolio?,Ivan žali što je prolio 3 litre piva.,fac,,,33,ad_measure,ob_dir + ad_mode + ad_measure,interrogative pronouns
,Timer frame,html.Frame,2_28_0,,,,,,,1600.5999999284977,389540.1999999285,389592.1,389638.6,391239.1999999285,391239.2999999523,2025-02-01T12:24:56.945Z,391273.726,a8Z-qgkUcx,incremental,jednostavno-test,679df971131ae225e46b4282,participant,hcpib7hgm6m5ssxy,,,,Koliko piva Ivan žali što je prolio?,Ivan žali što je prolio 3 litre piva.,fac,,,33,ad_measure,ob_dir + ad_mode + ad_measure,interrogative pronouns
,stimulus,canvas.Screen,2_28_1_0,,,,,,response,4693.673999976134,391239.89999997616,391273.726,391273.726,395967.39999997616,396186.6999999285,2025-02-01T12:25:01.893Z,396247,a8Z-qgkUcx,incremental,jednostavno-test,679df971131ae225e46b4282,participant,hcpib7hgm6m5ssxy,,1,click @1,Koliko piva Ivan žali što je prolio?,Ivan žali što je prolio 3 litre piva.,fac,,,33,ad_measure,ob_dir + ad_mode + ad_measure,interrogative pronouns
,Timer frame,html.Frame,2_28_1,,,,,,,4914.374000023818,391239.6999999285,391273.726,391273.726,396188.10000002384,396188.39999997616,2025-02-01T12:25:01.894Z,396247,a8Z-qgkUcx,incremental,jednostavno-test,679df971131ae225e46b4282,participant,hcpib7hgm6m5ssxy,,,,Koliko piva Ivan žali što je prolio?,Ivan žali što je prolio 3 litre piva.,fac,,,33,ad_measure,ob_dir + ad_mode + ad_measure,interrogative pronouns
,inter-stimulus,canvas.Screen,2_28_2,,,,,,response,2924.6999999284744,396188.7999999523,396246.96,396247,399171.6999999285,399369.10000002384,2025-02-01T12:25:05.075Z,399410.2,a8Z-qgkUcx,incremental,jednostavno-test,679df971131ae225e46b4282,participant,hcpib7hgm6m5ssxy,,,mousedown,Koliko piva Ivan žali što je prolio?,Ivan žali što je prolio 3 litre piva.,fac,,,33,ad_measure,ob_dir + ad_mode + ad_measure,interrogative pronouns
,Sequence,flow.Sequence,2_28,,,,,,completion,9533.099999928498,389540,389592.1,389638.6,399171.6999999285,399370.2999999523,2025-02-01T12:25:05.076Z,399410.2,a8Z-qgkUcx,incremental,jednostavno-test,679df971131ae225e46b4282,participant,hcpib7hgm6m5ssxy,,,,Koliko piva Ivan žali što je prolio?,Ivan žali što je prolio 3 litre piva.,fac,,,33,ad_measure,ob_dir + ad_mode + ad_measure,interrogative pronouns
,context,canvas.Screen,2_29_0_0,,,,,,response,1513.9999999284628,399373.2999999523,399396.874,399410.2,400924.1999999285,401125.1999999285,2025-02-01T12:25:06.831Z,401204.2,a8Z-qgkUcx,incremental,jednostavno-test,679df971131ae225e46b4282,participant,hcpib7hgm6m5ssxy,,,click,Došao je dan kada Martin ne ide na posao.,Martin sutra ne dolazi na posao.,neg,,,27,ad_time,ad_time + ad_place,relative pronouns
,Timer frame,html.Frame,2_29_0,,,,,,,1715.0999999523046,399370.7999999523,399396.874,399410.2,401125.2999999523,401126.2999999523,2025-02-01T12:25:06.832Z,401204.2,a8Z-qgkUcx,incremental,jednostavno-test,679df971131ae225e46b4282,participant,hcpib7hgm6m5ssxy,,,,Došao je dan kada Martin ne ide na posao.,Martin sutra ne dolazi na posao.,neg,,,27,ad_time,ad_time + ad_place,relative pronouns
,stimulus,canvas.Screen,2_29_1_0,,,,,,response,4550.40000002383,401126.60000002384,401187.53,401204.2,405754.60000002384,405935.39999997616,2025-02-01T12:25:11.642Z,405959.4,a8Z-qgkUcx,incremental,jednostavno-test,679df971131ae225e46b4282,participant,hcpib7hgm6m5ssxy,,7,click @7,Došao je dan kada Martin ne ide na posao.,Martin sutra ne dolazi na posao.,neg,,,27,ad_time,ad_time + ad_place,relative pronouns
,Timer frame,html.Frame,2_29_1,,,,,,,4732.499999928463,401126.2999999523,401187.53,401204.2,405936.6999999285,405936.7999999523,2025-02-01T12:25:11.643Z,405959.4,a8Z-qgkUcx,incremental,jednostavno-test,679df971131ae225e46b4282,participant,hcpib7hgm6m5ssxy,,,,Došao je dan kada Martin ne ide na posao.,Martin sutra ne dolazi na posao.,neg,,,27,ad_time,ad_time + ad_place,relative pronouns
,inter-stimulus,canvas.Screen,2_29_2,,,,,,response,3599.899999952293,405936.89999997616,405959.398,405959.4,409559.2999999523,409739.60000002384,2025-02-01T12:25:15.446Z,409789.2,a8Z-qgkUcx,incremental,jednostavno-test,679df971131ae225e46b4282,participant,hcpib7hgm6m5ssxy,,,mousedown,Došao je dan kada Martin ne ide na posao.,Martin sutra ne dolazi na posao.,neg,,,27,ad_time,ad_time + ad_place,relative pronouns
,Sequence,flow.Sequence,2_29,,,,,,completion,10149.099999952305,399370.2999999523,399396.874,399410.2,409559.2999999523,409739.7999999523,2025-02-01T12:25:15.446Z,409789.2,a8Z-qgkUcx,incremental,jednostavno-test,679df971131ae225e46b4282,participant,hcpib7hgm6m5ssxy,,,,Došao je dan kada Martin ne ide na posao.,Martin sutra ne dolazi na posao.,neg,,,27,ad_time,ad_time + ad_place,relative pronouns
,context,canvas.Screen,2_30_0_0,,,,,,response,2707.5999999523046,409744.60000002384,409775.914,409789.2,412496.7999999523,412673,2025-02-01T12:25:18.379Z,412701.284,a8Z-qgkUcx,incremental,jednostavno-test,679df971131ae225e46b4282,participant,hcpib7hgm6m5ssxy,,,click,Tražim ove slušalice koje sam pitao Antona gdje je ostavio.,Pitao sam Antona gdje je ostavio moje slušalice.,iq,0,0,16,ob,ob + ad,relative pronouns
,Timer frame,html.Frame,2_30_0,,,,,,,2883.999999928463,409740,409775.914,409789.2,412673.1999999285,412673.5,2025-02-01T12:25:18.380Z,412701.284,a8Z-qgkUcx,incremental,jednostavno-test,679df971131ae225e46b4282,participant,hcpib7hgm6m5ssxy,,,,Tražim ove slušalice koje sam pitao Antona gdje je ostavio.,Pitao sam Antona gdje je ostavio moje slušalice.,iq,0,0,16,ob,ob + ad,relative pronouns
,stimulus,canvas.Screen,2_30_1_0,,,,,,response,4676.216000000015,412673.89999997616,412701.284,412701.284,417377.5,417541.1999999285,2025-02-01T12:25:23.247Z,417590.46,a8Z-qgkUcx,incremental,jednostavno-test,679df971131ae225e46b4282,participant,hcpib7hgm6m5ssxy,,1,click @1,Tražim ove slušalice koje sam pitao Antona gdje je ostavio.,Pitao sam Antona gdje je ostavio moje slušalice.,iq,0,0,16,ob,ob + ad,relative pronouns
,Timer frame,html.Frame,2_30_1,,,,,,,4840.015999952331,412673.5,412701.284,412701.284,417541.2999999523,417541.60000002384,2025-02-01T12:25:23.248Z,417590.46,a8Z-qgkUcx,incremental,jednostavno-test,679df971131ae225e46b4282,participant,hcpib7hgm6m5ssxy,,,,Tražim ove slušalice koje sam pitao Antona gdje je ostavio.,Pitao sam Antona gdje je ostavio moje slušalice.,iq,0,0,16,ob,ob + ad,relative pronouns
,inter-stimulus,canvas.Screen,2_30_2,,,,,,response,1297.3399999522953,417541.6999999285,417590.46,417590.46,418887.7999999523,419080.5,2025-02-01T12:25:24.787Z,419109.6,a8Z-qgkUcx,incremental,jednostavno-test,679df971131ae225e46b4282,participant,hcpib7hgm6m5ssxy,,,mousedown,Tražim ove slušalice koje sam pitao Antona gdje je ostavio.,Pitao sam Antona gdje je ostavio moje slušalice.,iq,0,0,16,ob,ob + ad,relative pronouns
,Sequence,flow.Sequence,2_30,,,,,,completion,9098.599999952305,409740,409775.914,409789.2,418887.7999999523,419081,2025-02-01T12:25:24.787Z,419109.6,a8Z-qgkUcx,incremental,jednostavno-test,679df971131ae225e46b4282,participant,hcpib7hgm6m5ssxy,,,,Tražim ove slušalice koje sam pitao Antona gdje je ostavio.,Pitao sam Antona gdje je ostavio moje slušalice.,iq,0,0,16,ob,ob + ad,relative pronouns
,context,canvas.Screen,2_31_0_0,,,,,,response,3900.500000023865,419081.39999997616,419107.066,419109.6,423010.10000002384,423209.2999999523,2025-02-01T12:25:28.915Z,423256.6,a8Z-qgkUcx,incremental,jednostavno-test,679df971131ae225e46b4282,participant,hcpib7hgm6m5ssxy,,,click,"Kako, Perići znaju, da se Petar tog dana vozio kući?",Perići znaju da se Petar tog dana vrlo brzo vozio kući.,fac,,,38,ad_mode,ob + ad_mode,interrogative pronouns
,Timer frame,html.Frame,2_31_0,,,,,,,4099.900000000023,419081.10000002384,419107.066,419109.6,423209.5,423209.7999999523,2025-02-01T12:25:28.916Z,423256.6,a8Z-qgkUcx,incremental,jednostavno-test,679df971131ae225e46b4282,participant,hcpib7hgm6m5ssxy,,,,"Kako, Perići znaju, da se Petar tog dana vozio kući?",Perići znaju da se Petar tog dana vrlo brzo vozio kući.,fac,,,38,ad_mode,ob + ad_mode,interrogative pronouns
,stimulus,canvas.Screen,2_31_1_0,,,,,,response,3742.000000023865,423210.10000002384,423256.528,423256.6,426998.60000002384,427150.1999999285,2025-02-01T12:25:32.856Z,427186.488,a8Z-qgkUcx,incremental,jednostavno-test,679df971131ae225e46b4282,participant,hcpib7hgm6m5ssxy,,1,click @1,"Kako, Perići znaju, da se Petar tog dana vozio kući?",Perići znaju da se Petar tog dana vrlo brzo vozio kući.,fac,,,38,ad_mode,ob + ad_mode,interrogative pronouns
,Timer frame,html.Frame,2_31_1,,,,,,,3893.9000000000233,423209.89999997616,423256.528,423256.6,427150.5,427150.6999999285,2025-02-01T12:25:32.857Z,427186.488,a8Z-qgkUcx,incremental,jednostavno-test,679df971131ae225e46b4282,participant,hcpib7hgm6m5ssxy,,,,"Kako, Perići znaju, da se Petar tog dana vozio kući?",Perići znaju da se Petar tog dana vrlo brzo vozio kući.,fac,,,38,ad_mode,ob + ad_mode,interrogative pronouns
,inter-stimulus,canvas.Screen,2_31_2,,,,,,response,1205.511999999988,427150.89999997616,427186.488,427186.488,428392,428567.10000002384,2025-02-01T12:25:34.273Z,428603.098,a8Z-qgkUcx,incremental,jednostavno-test,679df971131ae225e46b4282,participant,hcpib7hgm6m5ssxy,,,mousedown,"Kako, Perići znaju, da se Petar tog dana vozio kući?",Perići znaju da se Petar tog dana vrlo brzo vozio kući.,fac,,,38,ad_mode,ob + ad_mode,interrogative pronouns
,Sequence,flow.Sequence,2_31,,,,,,completion,9282.400000000023,419081.10000002384,419107.066,419109.6,428392,428567.39999997616,2025-02-01T12:25:34.273Z,428603.098,a8Z-qgkUcx,incremental,jednostavno-test,679df971131ae225e46b4282,participant,hcpib7hgm6m5ssxy,,,,"Kako, Perići znaju, da se Petar tog dana vozio kući?",Perići znaju da se Petar tog dana vrlo brzo vozio kući.,fac,,,38,ad_mode,ob + ad_mode,interrogative pronouns
,context,canvas.Screen,2_32_0_0,,,,,,response,1716.2019999523181,428568.10000002384,428603.098,428603.098,430319.2999999523,430488.89999997616,2025-02-01T12:25:36.195Z,430532.4,a8Z-qgkUcx,incremental,jednostavno-test,679df971131ae225e46b4282,participant,hcpib7hgm6m5ssxy,,,click,Kada Slavko ide u SAD na work and travel program?,Na ljeto Slavko ide u USA na work and travel program.,iq,0,0,9,ad,ad + ad,interrogative pronouns
,Timer frame,html.Frame,2_32_0,,,,,,,1886.1019999284763,428567.7999999523,428603.098,428603.098,430489.1999999285,430489.39999997616,2025-02-01T12:25:36.195Z,430532.4,a8Z-qgkUcx,incremental,jednostavno-test,679df971131ae225e46b4282,participant,hcpib7hgm6m5ssxy,,,,Kada Slavko ide u SAD na work and travel program?,Na ljeto Slavko ide u USA na work and travel program.,iq,0,0,9,ad,ad + ad,interrogative pronouns
,stimulus,canvas.Screen,2_32_1_0,,,,,,response,2212.7000000238186,430489.7999999523,430515.796,430532.4,432745.10000002384,432913.6999999285,2025-02-01T12:25:38.620Z,432966.5,a8Z-qgkUcx,incremental,jednostavno-test,679df971131ae225e46b4282,participant,hcpib7hgm6m5ssxy,,7,click @7,Kada Slavko ide u SAD na work and travel program?,Na ljeto Slavko ide u USA na work and travel program.,iq,0,0,9,ad,ad + ad,interrogative pronouns
,Timer frame,html.Frame,2_32_1,,,,,,,2381.499999976135,430489.5,430515.796,430532.4,432913.89999997616,432914,2025-02-01T12:25:38.620Z,432966.5,a8Z-qgkUcx,incremental,jednostavno-test,679df971131ae225e46b4282,participant,hcpib7hgm6m5ssxy,,,,Kada Slavko ide u SAD na work and travel program?,Na ljeto Slavko ide u USA na work and travel program.,iq,0,0,9,ad,ad + ad,interrogative pronouns
,inter-stimulus,canvas.Screen,2_32_2,,,,,,response,1097.5,432914.10000002384,432949.95,432966.5,434064,434270.39999997616,2025-02-01T12:25:39.976Z,434327.3,a8Z-qgkUcx,incremental,jednostavno-test,679df971131ae225e46b4282,participant,hcpib7hgm6m5ssxy,,,mousedown,Kada Slavko ide u SAD na work and travel program?,Na ljeto Slavko ide u USA na work and travel program.,iq,0,0,9,ad,ad + ad,interrogative pronouns
,Sequence,flow.Sequence,2_32,,,,,,completion,5460.902000000002,428567.6999999285,428603.098,428603.098,434064,434270.89999997616,2025-02-01T12:25:39.977Z,434327.3,a8Z-qgkUcx,incremental,jednostavno-test,679df971131ae225e46b4282,participant,hcpib7hgm6m5ssxy,,,,Kada Slavko ide u SAD na work and travel program?,Na ljeto Slavko ide u USA na work and travel program.,iq,0,0,9,ad,ad + ad,interrogative pronouns
,context,canvas.Screen,2_33_0_0,,,,,,response,1089.2000000000116,434271.39999997616,434299.78,434327.3,435416.5,435593.10000002384,2025-02-01T12:25:41.299Z,435629.162,a8Z-qgkUcx,incremental,jednostavno-test,679df971131ae225e46b4282,participant,hcpib7hgm6m5ssxy,,,click,Ovo je sport koji Daniela ne voli gledati.,Danijela ne voli gledati nogomet.,neg,0,0,25,ob,ob + ob,relative pronouns
,Timer frame,html.Frame,2_33_0,,,,,,,1265.899999928486,434271,434299.78,434327.3,435593.1999999285,435593.5,2025-02-01T12:25:41.299Z,435629.162,a8Z-qgkUcx,incremental,jednostavno-test,679df971131ae225e46b4282,participant,hcpib7hgm6m5ssxy,,,,Ovo je sport koji Daniela ne voli gledati.,Danijela ne voli gledati nogomet.,neg,0,0,25,ob,ob + ob,relative pronouns
,stimulus,canvas.Screen,2_33_1_0,,,,,,response,2207.337999999989,435593.7999999523,435629.162,435629.162,437836.5,438019.60000002384,2025-02-01T12:25:43.726Z,438066.2,a8Z-qgkUcx,incremental,jednostavno-test,679df971131ae225e46b4282,participant,hcpib7hgm6m5ssxy,,7,click @7,Ovo je sport koji Daniela ne voli gledati.,Danijela ne voli gledati nogomet.,neg,0,0,25,ob,ob + ob,relative pronouns
,Timer frame,html.Frame,2_33_1,,,,,,,2390.837999999989,435593.60000002384,435629.162,435629.162,438020,438020.10000002384,2025-02-01T12:25:43.726Z,438066.2,a8Z-qgkUcx,incremental,jednostavno-test,679df971131ae225e46b4282,participant,hcpib7hgm6m5ssxy,,,,Ovo je sport koji Daniela ne voli gledati.,Danijela ne voli gledati nogomet.,neg,0,0,25,ob,ob + ob,relative pronouns
,inter-stimulus,canvas.Screen,2_33_2,,,,,,response,947.0999999523046,438020.2999999523,438049.488,438066.2,439013.2999999523,439221.60000002384,2025-02-01T12:25:44.928Z,439276.3,a8Z-qgkUcx,incremental,jednostavno-test,679df971131ae225e46b4282,participant,hcpib7hgm6m5ssxy,,,mousedown,Ovo je sport koji Daniela ne voli gledati.,Danijela ne voli gledati nogomet.,neg,0,0,25,ob,ob + ob,relative pronouns
,Sequence,flow.Sequence,2_33,,,,,,completion,4685.999999952328,434271,434299.78,434327.3,439013.2999999523,439222,2025-02-01T12:25:44.928Z,439276.3,a8Z-qgkUcx,incremental,jednostavno-test,679df971131ae225e46b4282,participant,hcpib7hgm6m5ssxy,,,,Ovo je sport koji Daniela ne voli gledati.,Danijela ne voli gledati nogomet.,neg,0,0,25,ob,ob + ob,relative pronouns
,context,canvas.Screen,2_34_0_0,,,,,,response,1062.999999952328,439222.2999999523,439249.486,439276.3,440339.2999999523,440508.89999997616,2025-02-01T12:25:46.215Z,440543.6,a8Z-qgkUcx,incremental,jednostavno-test,679df971131ae225e46b4282,participant,hcpib7hgm6m5ssxy,,,click,Želim pojesti jabuku što?,Želim pojesti jabuku.,nf,,,51,filler,filler,filler
,Timer frame,html.Frame,2_34_0,,,,,,,1232.899999928486,439222.10000002384,439249.486,439276.3,440509.1999999285,440509.2999999523,2025-02-01T12:25:46.215Z,440543.6,a8Z-qgkUcx,incremental,jednostavno-test,679df971131ae225e46b4282,participant,hcpib7hgm6m5ssxy,,,,Želim pojesti jabuku što?,Želim pojesti jabuku.,nf,,,51,filler,filler,filler
,stimulus,canvas.Screen,2_34_1_0,,,,,,response,2323.5999999284977,440509.6999999285,440526.96,440543.6,442867.1999999285,443023.1999999285,2025-02-01T12:25:48.729Z,443071.922,a8Z-qgkUcx,incremental,jednostavno-test,679df971131ae225e46b4282,participant,hcpib7hgm6m5ssxy,,1,click @1,Želim pojesti jabuku što?,Želim pojesti jabuku.,nf,,,51,filler,filler,filler
,Timer frame,html.Frame,2_34_1,,,,,,,2479.9000000000233,440509.5,440526.96,440543.6,443023.5,443023.6999999285,2025-02-01T12:25:48.730Z,443071.922,a8Z-qgkUcx,incremental,jednostavno-test,679df971131ae225e46b4282,participant,hcpib7hgm6m5ssxy,,,,Želim pojesti jabuku što?,Želim pojesti jabuku.,nf,,,51,filler,filler,filler
,inter-stimulus,canvas.Screen,2_34_2,,,,,,response,1080.777999928454,443023.7999999523,443071.922,443071.922,444152.6999999285,444319.1999999285,2025-02-01T12:25:50.025Z,444348.7,a8Z-qgkUcx,incremental,jednostavno-test,679df971131ae225e46b4282,participant,hcpib7hgm6m5ssxy,,,mousedown,Želim pojesti jabuku što?,Želim pojesti jabuku.,nf,,,51,filler,filler,filler
,Sequence,flow.Sequence,2_34,,,,,,completion,4876.399999928486,439222,439249.486,439276.3,444152.6999999285,444319.7999999523,2025-02-01T12:25:50.026Z,444348.7,a8Z-qgkUcx,incremental,jednostavno-test,679df971131ae225e46b4282,participant,hcpib7hgm6m5ssxy,,,,Želim pojesti jabuku što?,Želim pojesti jabuku.,nf,,,51,filler,filler,filler
,context,canvas.Screen,2_35_0_0,,,,,,response,2332.40000002383,444320.2999999523,444338.538,444348.7,446681.10000002384,446831.10000002384,2025-02-01T12:25:52.537Z,446868.7,a8Z-qgkUcx,incremental,jednostavno-test,679df971131ae225e46b4282,participant,hcpib7hgm6m5ssxy,,,click,Što je bilo vrlo lako?,Pronaći pravo stajalište bilo je vrlo lako.,gf,,,50,filler,filler,filler
,Timer frame,html.Frame,2_35_0,,,,,,,2482.90000002383,444319.89999997616,444338.538,444348.7,446831.60000002384,446831.7999999523,2025-02-01T12:25:52.538Z,446868.7,a8Z-qgkUcx,incremental,jednostavno-test,679df971131ae225e46b4282,participant,hcpib7hgm6m5ssxy,,,,Što je bilo vrlo lako?,Pronaći pravo stajalište bilo je vrlo lako.,gf,,,50,filler,filler,filler
,stimulus,canvas.Screen,2_35_1_0,,,,,,response,3091.6999999761465,446832.39999997616,446868.696,446868.7,449960.39999997616,450170.2999999523,2025-02-01T12:25:55.876Z,450207.1,a8Z-qgkUcx,incremental,jednostavno-test,679df971131ae225e46b4282,participant,hcpib7hgm6m5ssxy,,7,click @7,Što je bilo vrlo lako?,Pronaći pravo stajalište bilo je vrlo lako.,gf,,,50,filler,filler,filler
,Timer frame,html.Frame,2_35_1,,,,,,,3301.7999999999884,446832.10000002384,446868.696,446868.7,450170.5,450170.60000002384,2025-02-01T12:25:55.877Z,450207.1,a8Z-qgkUcx,incremental,jednostavno-test,679df971131ae225e46b4282,participant,hcpib7hgm6m5ssxy,,,,Što je bilo vrlo lako?,Pronaći pravo stajalište bilo je vrlo lako.,gf,,,50,filler,filler,filler
,inter-stimulus,canvas.Screen,2_35_2,,,,,,response,1489.5000000238651,450170.7999999523,450207.028,450207.1,451696.60000002384,451881.1999999285,2025-02-01T12:25:57.587Z,451926,a8Z-qgkUcx,incremental,jednostavno-test,679df971131ae225e46b4282,participant,hcpib7hgm6m5ssxy,,,mousedown,Što je bilo vrlo lako?,Pronaći pravo stajalište bilo je vrlo lako.,gf,,,50,filler,filler,filler
,Sequence,flow.Sequence,2_35,,,,,,completion,7347.90000002383,444319.7999999523,444338.538,444348.7,451696.60000002384,451881.5,2025-02-01T12:25:57.587Z,451926,a8Z-qgkUcx,incremental,jednostavno-test,679df971131ae225e46b4282,participant,hcpib7hgm6m5ssxy,,,,Što je bilo vrlo lako?,Pronaći pravo stajalište bilo je vrlo lako.,gf,,,50,filler,filler,filler
,context,canvas.Screen,2_36_0_0,,,,,,response,2240.6999999284744,451882,451923.698,451926,454166.6999999285,454332.5,2025-02-01T12:26:00.039Z,454362.7,a8Z-qgkUcx,incremental,jednostavno-test,679df971131ae225e46b4282,participant,hcpib7hgm6m5ssxy,,,click,"Što, Klara misli, da je Petar kupio na tržnici?",Klara misli da je Petar kupio sat na tržnici.,fac,,,39,ob,ob + ad_mode,interrogative pronouns
,Timer frame,html.Frame,2_36_0,,,,,,,2406.6999999284744,451881.6999999285,451923.698,451926,454332.6999999285,454332.89999997616,2025-02-01T12:26:00.039Z,454362.7,a8Z-qgkUcx,incremental,jednostavno-test,679df971131ae225e46b4282,participant,hcpib7hgm6m5ssxy,,,,"Što, Klara misli, da je Petar kupio na tržnici?",Klara misli da je Petar kupio sat na tržnici.,fac,,,39,ob,ob + ad_mode,interrogative pronouns
,stimulus,canvas.Screen,2_36_1_0,,,,,,response,5277.40000002383,454333.2999999523,454329.4,454362.7,459640.10000002384,459837.2999999523,2025-02-01T12:26:05.543Z,459886.8,a8Z-qgkUcx,incremental,jednostavno-test,679df971131ae225e46b4282,participant,hcpib7hgm6m5ssxy,,1,click @1,"Što, Klara misli, da je Petar kupio na tržnici?",Klara misli da je Petar kupio sat na tržnici.,fac,,,39,ob,ob + ad_mode,interrogative pronouns
,Timer frame,html.Frame,2_36_1,,,,,,,5474.799999999988,454333,454329.4,454362.7,459837.5,459837.6999999285,2025-02-01T12:26:05.544Z,459886.8,a8Z-qgkUcx,incremental,jednostavno-test,679df971131ae225e46b4282,participant,hcpib7hgm6m5ssxy,,,,"Što, Klara misli, da je Petar kupio na tržnici?",Klara misli da je Petar kupio sat na tržnici.,fac,,,39,ob,ob + ad_mode,interrogative pronouns
,inter-stimulus,canvas.Screen,2_36_2,,,,,,response,3516.999999952328,459837.7999999523,459886.762,459886.8,463403.7999999523,463571.5,2025-02-01T12:26:09.278Z,463603.318,a8Z-qgkUcx,incremental,jednostavno-test,679df971131ae225e46b4282,participant,hcpib7hgm6m5ssxy,,,mousedown,"Što, Klara misli, da je Petar kupio na tržnici?",Klara misli da je Petar kupio sat na tržnici.,fac,,,39,ob,ob + ad_mode,interrogative pronouns
,Sequence,flow.Sequence,2_36,,,,,,completion,11477.799999952316,451881.60000002384,451923.698,451926,463403.7999999523,463572,2025-02-01T12:26:09.278Z,463603.318,a8Z-qgkUcx,incremental,jednostavno-test,679df971131ae225e46b4282,participant,hcpib7hgm6m5ssxy,,,,"Što, Klara misli, da je Petar kupio na tržnici?",Klara misli da je Petar kupio sat na tržnici.,fac,,,39,ob,ob + ad_mode,interrogative pronouns
,context,canvas.Screen,2_37_0_0,,,,,,response,1561.381999928446,463572.5,463603.318,463603.318,465164.6999999285,465314.39999997616,2025-02-01T12:26:11.020Z,465361,a8Z-qgkUcx,incremental,jednostavno-test,679df971131ae225e46b4282,participant,hcpib7hgm6m5ssxy,,,click,Što je Anton napisao u pismu?,Anton je u pismu napisao besmislicu.,gf,,,45,filler,filler,filler
,Timer frame,html.Frame,2_37_0,,,,,,,1711.381999928446,463572.2999999523,463603.318,463603.318,465314.6999999285,465314.7999999523,2025-02-01T12:26:11.021Z,465361,a8Z-qgkUcx,incremental,jednostavno-test,679df971131ae225e46b4282,participant,hcpib7hgm6m5ssxy,,,,Što je Anton napisao u pismu?,Anton je u pismu napisao besmislicu.,gf,,,45,filler,filler,filler
,stimulus,canvas.Screen,2_37_1_0,,,,,,response,2782,465315.2999999523,465360.998,465361,468143,468286.5,2025-02-01T12:26:13.993Z,468322.8,a8Z-qgkUcx,incremental,jednostavno-test,679df971131ae225e46b4282,participant,hcpib7hgm6m5ssxy,,7,click @7,Što je Anton napisao u pismu?,Anton je u pismu napisao besmislicu.,gf,,,45,filler,filler,filler
,Timer frame,html.Frame,2_37_1,,,,,,,2925.7999999523163,465315,465360.998,465361,468286.7999999523,468287,2025-02-01T12:26:13.993Z,468322.8,a8Z-qgkUcx,incremental,jednostavno-test,679df971131ae225e46b4282,participant,hcpib7hgm6m5ssxy,,,,Što je Anton napisao u pismu?,Anton je u pismu napisao besmislicu.,gf,,,45,filler,filler,filler
,inter-stimulus,canvas.Screen,2_37_2,,,,,,response,1021.4999999523279,468287.1999999285,468322.798,468322.8,469344.2999999523,469529,2025-02-01T12:26:15.235Z,469557.3,a8Z-qgkUcx,incremental,jednostavno-test,679df971131ae225e46b4282,participant,hcpib7hgm6m5ssxy,,,mousedown,Što je Anton napisao u pismu?,Anton je u pismu napisao besmislicu.,gf,,,45,filler,filler,filler
,Sequence,flow.Sequence,2_37,,,,,,completion,5740.981999952288,463572.1999999285,463603.318,463603.318,469344.2999999523,469529.39999997616,2025-02-01T12:26:15.235Z,469557.3,a8Z-qgkUcx,incremental,jednostavno-test,679df971131ae225e46b4282,participant,hcpib7hgm6m5ssxy,,,,Što je Anton napisao u pismu?,Anton je u pismu napisao besmislicu.,gf,,,45,filler,filler,filler
,context,canvas.Screen,2_38_0_0,,,,,,response,3108.8000000238535,469529.7999999523,469556.084,469557.3,472666.10000002384,472816.6999999285,2025-02-01T12:26:18.523Z,472837.4,a8Z-qgkUcx,incremental,jednostavno-test,679df971131ae225e46b4282,participant,hcpib7hgm6m5ssxy,,,click,Koliko pjesama Stepan nije stignuo naučiti za sat književnosti?,Stepan nije stignuo naučiti 3 pjesme za sat književnosti.,neg,,,24,ad_measure,ad_mode + ad_measure,interrogative pronouns
,Timer frame,html.Frame,2_38_0,,,,,,,3259.7000000000116,469529.5,469556.084,469557.3,472817,472817.10000002384,2025-02-01T12:26:18.523Z,472837.4,a8Z-qgkUcx,incremental,jednostavno-test,679df971131ae225e46b4282,participant,hcpib7hgm6m5ssxy,,,,Koliko pjesama Stepan nije stignuo naučiti za sat književnosti?,Stepan nije stignuo naučiti 3 pjesme za sat književnosti.,neg,,,24,ad_measure,ad_mode + ad_measure,interrogative pronouns
,stimulus,canvas.Screen,2_38_1_0,,,,,,response,3742.0999999999767,472817.60000002384,472837.398,472837.4,476579.5,476771.89999997616,2025-02-01T12:26:22.478Z,476809.6,a8Z-qgkUcx,incremental,jednostavno-test,679df971131ae225e46b4282,participant,hcpib7hgm6m5ssxy,,7,click @7,Koliko pjesama Stepan nije stignuo naučiti za sat književnosti?,Stepan nije stignuo naučiti 3 pjesme za sat književnosti.,neg,,,24,ad_measure,ad_mode + ad_measure,interrogative pronouns
,Timer frame,html.Frame,2_38_1,,,,,,,3934.7000000238186,472817.2999999523,472837.398,472837.4,476772.10000002384,476772.2999999523,2025-02-01T12:26:22.478Z,476809.6,a8Z-qgkUcx,incremental,jednostavno-test,679df971131ae225e46b4282,participant,hcpib7hgm6m5ssxy,,,,Koliko pjesama Stepan nije stignuo naučiti za sat književnosti?,Stepan nije stignuo naučiti 3 pjesme za sat književnosti.,neg,,,24,ad_measure,ad_mode + ad_measure,interrogative pronouns
,inter-stimulus,canvas.Screen,2_38_2,,,,,,response,813.4000000000233,476772.5,476809.598,476809.6,477623,477801.5,2025-02-01T12:26:23.507Z,477835.5,a8Z-qgkUcx,incremental,jednostavno-test,679df971131ae225e46b4282,participant,hcpib7hgm6m5ssxy,,,mousedown,Koliko pjesama Stepan nije stignuo naučiti za sat književnosti?,Stepan nije stignuo naučiti 3 pjesme za sat književnosti.,neg,,,24,ad_measure,ad_mode + ad_measure,interrogative pronouns
,Sequence,flow.Sequence,2_38,,,,,,completion,8065.700000000012,469529.39999997616,469556.084,469557.3,477623,477801.89999997616,2025-02-01T12:26:23.508Z,477835.5,a8Z-qgkUcx,incremental,jednostavno-test,679df971131ae225e46b4282,participant,hcpib7hgm6m5ssxy,,,,Koliko pjesama Stepan nije stignuo naučiti za sat književnosti?,Stepan nije stignuo naučiti 3 pjesme za sat književnosti.,neg,,,24,ad_measure,ad_mode + ad_measure,interrogative pronouns
