meta,sender,sender_type,sender_id,age,education,croatian-knowledge,occupation,,ended_on,duration,time_run,time_render,time_show,time_end,time_commit,timestamp,time_switch,openLabId,type,task,project,status,code,confirmationCode,response,response_action,stimulus,context,island_type,transfer_s,transfer_c,id,movement,opposition,category
"{""labjs_version"":""20.2.4"",""labjs_build"":{""flavor"":""production"",""commit"":""f5b4a49f956347addd546a832a3327688c2c0fef""},""location"":""https://open-lab.online/test/jednostavno-test/679e0418131ae225e46b42a1"",""userAgent"":""Mozilla/5.0 (Windows NT 10.0; Win64; x64) AppleWebKit/537.36 (KHTML, like Gecko) Chrome/132.0.0.0 Safari/537.36"",""platform"":""Win32"",""language"":""hr-HR"",""locale"":""hr"",""timeZone"":""Europe/Zagreb"",""timezoneOffset"":-60,""screen_width"":1920,""screen_height"":1080,""scroll_width"":1920,""scroll_height"":863,""window_innerWidth"":1920,""window_innerHeight"":911,""devicePixelRatio"":1}",Demography form,html.Form,0,44,master,mother-tongue,,,form submission,23798.800000005962,832.4000000059605,843.466,860.1,24658.90000000596,24659.90000000596,2025-02-01T11:23:15.647Z,24670.9,cR4aC90T73,incremental,jednostavno-test,679df971131ae225e46b4282,participant,hcpib7hgm6m3tmkg,428130,,,,,,,,,,,
,context,canvas.Screen,1_0,,,,,,response,8388.299999988078,24660.40000000596,24654.926,24670.9,33059.19999998808,33060.90000000596,2025-02-01T11:23:24.048Z,33068.8,cR4aC90T73,incremental,jednostavno-test,679df971131ae225e46b4282,participant,hcpib7hgm6m3tmkg,,,click,,,,,,,,,
,stimulus,canvas.Screen,1_1,,,,,,response,16935.299999994037,33061.19999998808,33053.628,33068.8,50004.09999999404,50005,2025-02-01T11:23:40.992Z,50015,cR4aC90T73,incremental,jednostavno-test,679df971131ae225e46b4282,participant,hcpib7hgm6m3tmkg,,7,click @7,,,,,,,,,
,inter-stimulus,canvas.Screen,1_2,,,,,,response,6377.799999982119,50005,49998.808,50015,56392.79999998212,56394.5,2025-02-01T11:23:47.382Z,56396.6,cR4aC90T73,incremental,jednostavno-test,679df971131ae225e46b4282,participant,hcpib7hgm6m3tmkg,,,mousedown,,,,,,,,,
,context,canvas.Screen,1_3,,,,,,response,6911.19999998212,56394.69999998808,56381.546,56396.6,63307.79999998212,63309,2025-02-01T11:23:54.296Z,63328.1,cR4aC90T73,incremental,jednostavno-test,679df971131ae225e46b4282,participant,hcpib7hgm6m3tmkg,,,click,,,,,,,,,
,stimulus,canvas.Screen,1_4,,,,,,response,3902.19999998212,63309.19999998808,63313.158,63328.1,67230.29999998212,67231.90000000596,2025-02-01T11:23:58.219Z,67244.2,cR4aC90T73,incremental,jednostavno-test,679df971131ae225e46b4282,participant,hcpib7hgm6m3tmkg,,1,click @1,,,,,,,,,
,inter-stimulus,canvas.Screen,1_5,,,,,,response,1414.0999999821215,67232.19999998808,67227.838,67244.2,68658.29999998212,68660,2025-02-01T11:23:59.647Z,68693.6,cR4aC90T73,incremental,jednostavno-test,679df971131ae225e46b4282,participant,hcpib7hgm6m3tmkg,,,mousedown,,,,,,,,,
,context,canvas.Screen,1_6,,,,,,response,9605.199999982113,68660.19999998808,68677.476,68693.6,78298.79999998212,78300.40000000596,2025-02-01T11:24:09.287Z,78307.8,cR4aC90T73,incremental,jednostavno-test,679df971131ae225e46b4282,participant,hcpib7hgm6m3tmkg,,,click,,,,,,,,,
,stimulus,canvas.Screen,1_7_0,,,,,,response,9455.199999999997,78301.29999998212,78293.216,78307.8,87763,87764.69999998808,2025-02-01T11:24:18.752Z,87772.2,cR4aC90T73,incremental,jednostavno-test,679df971131ae225e46b4282,participant,hcpib7hgm6m3tmkg,,3,click @3,,,,,,,,,
,Timer frame,html.Frame,1_7,,,,,,,9457.199999999997,78300.59999999404,78293.216,78307.8,87765,87765.40000000596,2025-02-01T11:24:18.752Z,87772.2,cR4aC90T73,incremental,jednostavno-test,679df971131ae225e46b4282,participant,hcpib7hgm6m3tmkg,,,,,,,,,,,,
,inter-stimulus,canvas.Screen,1_8,,,,,,response,6685.899999994042,87765.59999999404,87757.128,87772.2,94458.09999999404,94459,2025-02-01T11:24:25.446Z,94470.6,cR4aC90T73,incremental,jednostavno-test,679df971131ae225e46b4282,participant,hcpib7hgm6m3tmkg,,,mousedown,,,,,,,,,
,First stimuli,flow.Sequence,1,,,,,,completion,69787.19999999405,24660.29999998212,24654.926,24670.9,94458.09999999404,94459.09999999404,2025-02-01T11:24:25.446Z,94470.6,cR4aC90T73,incremental,jednostavno-test,679df971131ae225e46b4282,participant,hcpib7hgm6m3tmkg,,,,,,,,,,,,
,context,canvas.Screen,2_0_0_0,,,,,,response,7219.499999994034,94459.29999998212,94455.6,94470.6,101690.09999999404,101690.69999998808,2025-02-01T11:24:32.678Z,101702.1,cR4aC90T73,incremental,jednostavno-test,679df971131ae225e46b4282,participant,hcpib7hgm6m3tmkg,,,click,"Što, Perići znaju, da je Petar kupio na tržnici?",Perići znaju da je Petar kupio sat na tržnici.,fac,,,37,ob,ob + ad_mode,interrogative pronouns
,Timer frame,html.Frame,2_0_0,,,,,,,7220.199999982113,94459.19999998808,94455.6,94470.6,101690.79999998212,101690.90000000596,2025-02-01T11:24:32.678Z,101702.1,cR4aC90T73,incremental,jednostavno-test,679df971131ae225e46b4282,participant,hcpib7hgm6m3tmkg,,,,"Što, Perići znaju, da je Petar kupio na tržnici?",Perići znaju da je Petar kupio sat na tržnici.,fac,,,37,ob,ob + ad_mode,interrogative pronouns
,stimulus,canvas.Screen,2_0_1_0,,,,,,response,6661.599999988073,101691,101685.654,101702.1,108363.69999998808,108364.59999999404,2025-02-01T11:24:39.352Z,108367.718,cR4aC90T73,incremental,jednostavno-test,679df971131ae225e46b4282,participant,hcpib7hgm6m3tmkg,,5,click @5,"Što, Perići znaju, da je Petar kupio na tržnici?",Perići znaju da je Petar kupio sat na tržnici.,fac,,,37,ob,ob + ad_mode,interrogative pronouns
,Timer frame,html.Frame,2_0_1,,,,,,,6662.699999982113,101690.90000000596,101685.654,101702.1,108364.79999998212,108364.90000000596,2025-02-01T11:24:39.352Z,108367.718,cR4aC90T73,incremental,jednostavno-test,679df971131ae225e46b4282,participant,hcpib7hgm6m3tmkg,,,,"Što, Perići znaju, da je Petar kupio na tržnici?",Perići znaju da je Petar kupio sat na tržnici.,fac,,,37,ob,ob + ad_mode,interrogative pronouns
,inter-stimulus,canvas.Screen,2_0_2,,,,,,response,1104.5819999821251,108365,108367.718,108367.718,109472.29999998212,109474,2025-02-01T11:24:40.461Z,109483.6,cR4aC90T73,incremental,jednostavno-test,679df971131ae225e46b4282,participant,hcpib7hgm6m3tmkg,,,mousedown,"Što, Perići znaju, da je Petar kupio na tržnici?",Perići znaju da je Petar kupio sat na tržnici.,fac,,,37,ob,ob + ad_mode,interrogative pronouns
,Sequence,flow.Sequence,2_0,,,,,,completion,15001.699999982113,94459.19999998808,94455.6,94470.6,109472.29999998212,109474.40000000596,2025-02-01T11:24:40.461Z,109483.6,cR4aC90T73,incremental,jednostavno-test,679df971131ae225e46b4282,participant,hcpib7hgm6m3tmkg,,,,"Što, Perići znaju, da je Petar kupio na tržnici?",Perići znaju da je Petar kupio sat na tržnici.,fac,,,37,ob,ob + ad_mode,interrogative pronouns
,context,canvas.Screen,2_1_0_0,,,,,,response,3972.9999999940337,109475.19999998808,109467.1,109483.6,113456.59999999404,113457.90000000596,2025-02-01T11:24:44.445Z,113465.9,cR4aC90T73,incremental,jednostavno-test,679df971131ae225e46b4282,participant,hcpib7hgm6m3tmkg,,,click,"Što, kurir je razjasnio, kada mora dostaviti?",Kurir je razjasnio kada mora dostaviti paket.,iq,,0,6,ob,ob + ad,interrogative pronouns
,Timer frame,html.Frame,2_1_0,,,,,,,3974.4999999940337,109474.69999998808,109467.1,109483.6,113458.09999999404,113458.29999998212,2025-02-01T11:24:44.445Z,113465.9,cR4aC90T73,incremental,jednostavno-test,679df971131ae225e46b4282,participant,hcpib7hgm6m3tmkg,,,,"Što, kurir je razjasnio, kada mora dostaviti?",Kurir je razjasnio kada mora dostaviti paket.,iq,,0,6,ob,ob + ad,interrogative pronouns
,stimulus,canvas.Screen,2_1_1_0,,,,,,response,5615.500000005966,113458.79999998212,113449.658,113465.9,119081.40000000596,119082.69999998808,2025-02-01T11:24:50.070Z,119098.1,cR4aC90T73,incremental,jednostavno-test,679df971131ae225e46b4282,participant,hcpib7hgm6m3tmkg,,1,click @1,"Što, kurir je razjasnio, kada mora dostaviti?",Kurir je razjasnio kada mora dostaviti paket.,iq,,0,6,ob,ob + ad,interrogative pronouns
,Timer frame,html.Frame,2_1_1,,,,,,,5617.000000005966,113458.40000000596,113449.658,113465.9,119082.90000000596,119083.09999999404,2025-02-01T11:24:50.070Z,119098.1,cR4aC90T73,incremental,jednostavno-test,679df971131ae225e46b4282,participant,hcpib7hgm6m3tmkg,,,,"Što, kurir je razjasnio, kada mora dostaviti?",Kurir je razjasnio kada mora dostaviti paket.,iq,,0,6,ob,ob + ad,interrogative pronouns
,inter-stimulus,canvas.Screen,2_1_2,,,,,,response,1977.6999999821128,119083.29999998212,119081.814,119098.1,121075.79999998212,121077.40000000596,2025-02-01T11:24:52.064Z,121081.388,cR4aC90T73,incremental,jednostavno-test,679df971131ae225e46b4282,participant,hcpib7hgm6m3tmkg,,,mousedown,"Što, kurir je razjasnio, kada mora dostaviti?",Kurir je razjasnio kada mora dostaviti paket.,iq,,0,6,ob,ob + ad,interrogative pronouns
,Sequence,flow.Sequence,2_1,,,,,,completion,11592.199999982113,109474.59999999404,109467.1,109483.6,121075.79999998212,121077.79999998212,2025-02-01T11:24:52.065Z,121081.388,cR4aC90T73,incremental,jednostavno-test,679df971131ae225e46b4282,participant,hcpib7hgm6m3tmkg,,,,"Što, kurir je razjasnio, kada mora dostaviti?",Kurir je razjasnio kada mora dostaviti paket.,iq,,0,6,ob,ob + ad,interrogative pronouns
,context,canvas.Screen,2_2_0_0,,,,,,response,2648.2119999940332,121078.5,121081.388,121081.388,123729.59999999404,123730.09999999404,2025-02-01T11:24:54.717Z,123763.7,cR4aC90T73,incremental,jednostavno-test,679df971131ae225e46b4282,participant,hcpib7hgm6m3tmkg,,,click,Ovo je sport koji Daniela ne voli gledati.,Danijela ne voli gledati nogomet.,neg,0,0,25,ob,ob + ob,relative pronouns
,Timer frame,html.Frame,2_2_0,,,,,,,2648.9119999821123,121078,121081.388,121081.388,123730.29999998212,123730.29999998212,2025-02-01T11:24:54.717Z,123763.7,cR4aC90T73,incremental,jednostavno-test,679df971131ae225e46b4282,participant,hcpib7hgm6m3tmkg,,,,Ovo je sport koji Daniela ne voli gledati.,Danijela ne voli gledati nogomet.,neg,0,0,25,ob,ob + ob,relative pronouns
,stimulus,canvas.Screen,2_2_1_0,,,,,,response,5138.200000005963,123730.5,123746.8,123763.7,128901.90000000596,128903.5,2025-02-01T11:24:59.890Z,128912.2,cR4aC90T73,incremental,jednostavno-test,679df971131ae225e46b4282,participant,hcpib7hgm6m3tmkg,,7,click @7,Ovo je sport koji Daniela ne voli gledati.,Danijela ne voli gledati nogomet.,neg,0,0,25,ob,ob + ob,relative pronouns
,Timer frame,html.Frame,2_2_1,,,,,,,5139.999999988082,123730.40000000596,123746.8,123763.7,128903.69999998808,128903.90000000596,2025-02-01T11:24:59.891Z,128912.2,cR4aC90T73,incremental,jednostavno-test,679df971131ae225e46b4282,participant,hcpib7hgm6m3tmkg,,,,Ovo je sport koji Daniela ne voli gledati.,Danijela ne voli gledati nogomet.,neg,0,0,25,ob,ob + ob,relative pronouns
,inter-stimulus,canvas.Screen,2_2_2,,,,,,response,659.5999999821215,128904.09999999404,128895.956,128912.2,129571.79999998212,129573.69999998808,2025-02-01T11:25:00.561Z,129578.7,cR4aC90T73,incremental,jednostavno-test,679df971131ae225e46b4282,participant,hcpib7hgm6m3tmkg,,,mousedown,Ovo je sport koji Daniela ne voli gledati.,Danijela ne voli gledati nogomet.,neg,0,0,25,ob,ob + ob,relative pronouns
,Sequence,flow.Sequence,2_2,,,,,,completion,8490.411999982112,121077.90000000596,121081.388,121081.388,129571.79999998212,129573.90000000596,2025-02-01T11:25:00.561Z,129578.7,cR4aC90T73,incremental,jednostavno-test,679df971131ae225e46b4282,participant,hcpib7hgm6m3tmkg,,,,Ovo je sport koji Daniela ne voli gledati.,Danijela ne voli gledati nogomet.,neg,0,0,25,ob,ob + ob,relative pronouns
,context,canvas.Screen,2_3_0_0,,,,,,response,5604.399999994042,129574.40000000596,129562.408,129578.7,135183.09999999404,135184.19999998808,2025-02-01T11:25:06.171Z,135210.8,cR4aC90T73,incremental,jednostavno-test,679df971131ae225e46b4282,participant,hcpib7hgm6m3tmkg,,,click,Koliko pjesama Stepan nije stignuo naučiti za sat književnosti?,Stepan nije stignuo naučiti 3 pjesme za sat književnosti.,neg,,,24,ad_measure,ad_mode + ad_measure,interrogative pronouns
,Timer frame,html.Frame,2_3_0,,,,,,,5605.800000000003,129574.09999999404,129562.408,129578.7,135184.5,135184.59999999404,2025-02-01T11:25:06.172Z,135210.8,cR4aC90T73,incremental,jednostavno-test,679df971131ae225e46b4282,participant,hcpib7hgm6m3tmkg,,,,Koliko pjesama Stepan nije stignuo naučiti za sat književnosti?,Stepan nije stignuo naučiti 3 pjesme za sat književnosti.,neg,,,24,ad_measure,ad_mode + ad_measure,interrogative pronouns
,stimulus,canvas.Screen,2_3_1_0,,,,,,response,5245.100000005972,135185,135194.8,135210.8,140455.90000000596,140457.29999998212,2025-02-01T11:25:11.444Z,140476.1,cR4aC90T73,incremental,jednostavno-test,679df971131ae225e46b4282,participant,hcpib7hgm6m3tmkg,,4,click @4,Koliko pjesama Stepan nije stignuo naučiti za sat književnosti?,Stepan nije stignuo naučiti 3 pjesme za sat književnosti.,neg,,,24,ad_measure,ad_mode + ad_measure,interrogative pronouns
,Timer frame,html.Frame,2_3_1,,,,,,,5246.799999994051,135184.79999998212,135194.8,135210.8,140457.59999999404,140458,2025-02-01T11:25:11.445Z,140476.1,cR4aC90T73,incremental,jednostavno-test,679df971131ae225e46b4282,participant,hcpib7hgm6m3tmkg,,,,Koliko pjesama Stepan nije stignuo naučiti za sat književnosti?,Stepan nije stignuo naučiti 3 pjesme za sat književnosti.,neg,,,24,ad_measure,ad_mode + ad_measure,interrogative pronouns
,inter-stimulus,canvas.Screen,2_3_2,,,,,,response,1082.8000000059546,140458.19999998808,140459.4,140476.1,141558.90000000596,141560.40000000596,2025-02-01T11:25:12.547Z,141575.9,cR4aC90T73,incremental,jednostavno-test,679df971131ae225e46b4282,participant,hcpib7hgm6m3tmkg,,,mousedown,Koliko pjesama Stepan nije stignuo naučiti za sat književnosti?,Stepan nije stignuo naučiti 3 pjesme za sat književnosti.,neg,,,24,ad_measure,ad_mode + ad_measure,interrogative pronouns
,Sequence,flow.Sequence,2_3,,,,,,completion,11980.200000005963,129574.09999999404,129562.408,129578.7,141558.90000000596,141560.79999998212,2025-02-01T11:25:12.548Z,141575.9,cR4aC90T73,incremental,jednostavno-test,679df971131ae225e46b4282,participant,hcpib7hgm6m3tmkg,,,,Koliko pjesama Stepan nije stignuo naučiti za sat književnosti?,Stepan nije stignuo naučiti 3 pjesme za sat književnosti.,neg,,,24,ad_measure,ad_mode + ad_measure,interrogative pronouns
,context,canvas.Screen,2_4_0_0,,,,,,response,3389.8999999821244,141561.40000000596,141559.724,141575.9,144965.79999998212,144967.19999998808,2025-02-01T11:25:15.954Z,144991.9,cR4aC90T73,incremental,jednostavno-test,679df971131ae225e46b4282,participant,hcpib7hgm6m3tmkg,,,click,Gdje moj bogati ujak drži svoj novac?,Moj bogati ujak drži svoj novac u švicarskoj banci.,gf,,,47,filler,filler,filler
,Timer frame,html.Frame,2_4_0,,,,,,,3391.5000000059663,141561.09999999404,141559.724,141575.9,144967.40000000596,144967.69999998808,2025-02-01T11:25:15.955Z,144991.9,cR4aC90T73,incremental,jednostavno-test,679df971131ae225e46b4282,participant,hcpib7hgm6m3tmkg,,,,Gdje moj bogati ujak drži svoj novac?,Moj bogati ujak drži svoj novac u švicarskoj banci.,gf,,,47,filler,filler,filler
,stimulus,canvas.Screen,2_4_1_0,,,,,,response,2804.0000000059663,144968.09999999404,144975.266,144991.9,147795.90000000596,147797.40000000596,2025-02-01T11:25:18.784Z,147807.6,cR4aC90T73,incremental,jednostavno-test,679df971131ae225e46b4282,participant,hcpib7hgm6m3tmkg,,7,click @7,Gdje moj bogati ujak drži svoj novac?,Moj bogati ujak drži svoj novac u švicarskoj banci.,gf,,,47,filler,filler,filler
,Timer frame,html.Frame,2_4_1,,,,,,,2805.6999999940454,144967.79999998212,144975.266,144991.9,147797.59999999404,147797.90000000596,2025-02-01T11:25:18.785Z,147807.6,cR4aC90T73,incremental,jednostavno-test,679df971131ae225e46b4282,participant,hcpib7hgm6m3tmkg,,,,Gdje moj bogati ujak drži svoj novac?,Moj bogati ujak drži svoj novac u švicarskoj banci.,gf,,,47,filler,filler,filler
,inter-stimulus,canvas.Screen,2_4_2,,,,,,response,1239.8999999999942,147797.90000000596,147791.324,147807.6,149047.5,149049.09999999404,2025-02-01T11:25:20.036Z,149057.3,cR4aC90T73,incremental,jednostavno-test,679df971131ae225e46b4282,participant,hcpib7hgm6m3tmkg,,,mousedown,Gdje moj bogati ujak drži svoj novac?,Moj bogati ujak drži svoj novac u švicarskoj banci.,gf,,,47,filler,filler,filler
,Sequence,flow.Sequence,2_4,,,,,,completion,7471.600000000006,141560.90000000596,141559.724,141575.9,149047.5,149049.5,2025-02-01T11:25:20.037Z,149057.3,cR4aC90T73,incremental,jednostavno-test,679df971131ae225e46b4282,participant,hcpib7hgm6m3tmkg,,,,Gdje moj bogati ujak drži svoj novac?,Moj bogati ujak drži svoj novac u švicarskoj banci.,gf,,,47,filler,filler,filler
,context,canvas.Screen,2_5_0_0,,,,,,response,2386.799999994051,149050.29999998212,149041.118,149057.3,151444.09999999404,151445.40000000596,2025-02-01T11:25:22.432Z,151456.7,cR4aC90T73,incremental,jednostavno-test,679df971131ae225e46b4282,participant,hcpib7hgm6m3tmkg,,,click,Pronašao sam taj uređaj koji mislim da je Marina izgubila.,Mislim da je Marina izgubila laptop.,fac,,,42,ob,ob + ob,non-interrogative component
,Timer frame,html.Frame,2_5_0,,,,,,,2388.299999994051,149049.79999998212,149041.118,149057.3,151445.59999999404,151445.59999999404,2025-02-01T11:25:22.433Z,151456.7,cR4aC90T73,incremental,jednostavno-test,679df971131ae225e46b4282,participant,hcpib7hgm6m3tmkg,,,,Pronašao sam taj uređaj koji mislim da je Marina izgubila.,Mislim da je Marina izgubila laptop.,fac,,,42,ob,ob + ob,non-interrogative component
,stimulus,canvas.Screen,2_5_1_0,,,,,,response,7141.999999988067,151446.09999999404,151440.296,151456.7,158598.69999998808,158599.79999998212,2025-02-01T11:25:29.587Z,158621.7,cR4aC90T73,incremental,jednostavno-test,679df971131ae225e46b4282,participant,hcpib7hgm6m3tmkg,,6,click @6,Pronašao sam taj uređaj koji mislim da je Marina izgubila.,Mislim da je Marina izgubila laptop.,fac,,,42,ob,ob + ob,non-interrogative component
,Timer frame,html.Frame,2_5_1,,,,,,,7143.299999999988,151445.79999998212,151440.296,151456.7,158600,158600,2025-02-01T11:25:29.587Z,158621.7,cR4aC90T73,incremental,jednostavno-test,679df971131ae225e46b4282,participant,hcpib7hgm6m3tmkg,,,,Pronašao sam taj uređaj koji mislim da je Marina izgubila.,Mislim da je Marina izgubila laptop.,fac,,,42,ob,ob + ob,non-interrogative component
,inter-stimulus,canvas.Screen,2_5_2,,,,,,response,2276.099999982107,158600.19999998808,158604.9,158621.7,160897.79999998212,160899.79999998212,2025-02-01T11:25:31.887Z,160904.942,cR4aC90T73,incremental,jednostavno-test,679df971131ae225e46b4282,participant,hcpib7hgm6m3tmkg,,,mousedown,Pronašao sam taj uređaj koji mislim da je Marina izgubila.,Mislim da je Marina izgubila laptop.,fac,,,42,ob,ob + ob,non-interrogative component
,Sequence,flow.Sequence,2_5,,,,,,completion,11840.49999998213,149049.69999998808,149041.118,149057.3,160897.79999998212,160900.19999998808,2025-02-01T11:25:31.887Z,160904.942,cR4aC90T73,incremental,jednostavno-test,679df971131ae225e46b4282,participant,hcpib7hgm6m3tmkg,,,,Pronašao sam taj uređaj koji mislim da je Marina izgubila.,Mislim da je Marina izgubila laptop.,fac,,,42,ob,ob + ob,non-interrogative component
,context,canvas.Screen,2_6_0_0,,,,,,response,2582.8579999821086,160900.5,160904.942,160904.942,163487.79999998212,163488.5,2025-02-01T11:25:34.475Z,163504.1,cR4aC90T73,incremental,jednostavno-test,679df971131ae225e46b4282,participant,hcpib7hgm6m3tmkg,,,click,Koliko piva Ivan žali što je prolio?,Ivan žali što je prolio 3 litre piva.,fac,,,33,ad_measure,ob_dir + ad_mode + ad_measure,interrogative pronouns
,Timer frame,html.Frame,2_6_0,,,,,,,2583.6579999940295,160900.29999998212,160904.942,160904.942,163488.59999999404,163488.69999998808,2025-02-01T11:25:34.476Z,163504.1,cR4aC90T73,incremental,jednostavno-test,679df971131ae225e46b4282,participant,hcpib7hgm6m3tmkg,,,,Koliko piva Ivan žali što je prolio?,Ivan žali što je prolio 3 litre piva.,fac,,,33,ad_measure,ob_dir + ad_mode + ad_measure,interrogative pronouns
,stimulus,canvas.Screen,2_6_1_0,,,,,,response,6044.399999999994,163488.90000000596,163487.656,163504.1,169548.5,169549.79999998212,2025-02-01T11:25:40.537Z,169568.9,cR4aC90T73,incremental,jednostavno-test,679df971131ae225e46b4282,participant,hcpib7hgm6m3tmkg,,6,click @6,Koliko piva Ivan žali što je prolio?,Ivan žali što je prolio 3 litre piva.,fac,,,33,ad_measure,ob_dir + ad_mode + ad_measure,interrogative pronouns
,Timer frame,html.Frame,2_6_1,,,,,,,6045.899999999994,163488.69999998808,163487.656,163504.1,169550,169550.19999998808,2025-02-01T11:25:40.537Z,169568.9,cR4aC90T73,incremental,jednostavno-test,679df971131ae225e46b4282,participant,hcpib7hgm6m3tmkg,,,,Koliko piva Ivan žali što je prolio?,Ivan žali što je prolio 3 litre piva.,fac,,,33,ad_measure,ob_dir + ad_mode + ad_measure,interrogative pronouns
,inter-stimulus,canvas.Screen,2_6_2,,,,,,response,926.0000000059663,169550.29999998212,169552.3,169568.9,170494.90000000596,170496.40000000596,2025-02-01T11:25:41.483Z,170502.1,cR4aC90T73,incremental,jednostavno-test,679df971131ae225e46b4282,participant,hcpib7hgm6m3tmkg,,,mousedown,Koliko piva Ivan žali što je prolio?,Ivan žali što je prolio 3 litre piva.,fac,,,33,ad_measure,ob_dir + ad_mode + ad_measure,interrogative pronouns
,Sequence,flow.Sequence,2_6,,,,,,completion,9589.95800000595,160900.19999998808,160904.942,160904.942,170494.90000000596,170496.69999998808,2025-02-01T11:25:41.484Z,170502.1,cR4aC90T73,incremental,jednostavno-test,679df971131ae225e46b4282,participant,hcpib7hgm6m3tmkg,,,,Koliko piva Ivan žali što je prolio?,Ivan žali što je prolio 3 litre piva.,fac,,,33,ad_measure,ob_dir + ad_mode + ad_measure,interrogative pronouns
,context,canvas.Screen,2_7_0_0,,,,,,response,3352.199999982113,170497.09999999404,170485.7,170502.1,173854.29999998212,173855.5,2025-02-01T11:25:44.843Z,173867.9,cR4aC90T73,incremental,jednostavno-test,679df971131ae225e46b4282,participant,hcpib7hgm6m3tmkg,,,click,"Kako, Klara milsi, da se Petar tog dana vozio kući?",Klara misli da se Petar tog dana vrlo brzo vozio kući.,fac,,,40,ad_mode,ob + ad_mode,interrogative pronouns
,Timer frame,html.Frame,2_7_0,,,,,,,3353.699999982113,170496.90000000596,170485.7,170502.1,173855.79999998212,173856,2025-02-01T11:25:44.843Z,173867.9,cR4aC90T73,incremental,jednostavno-test,679df971131ae225e46b4282,participant,hcpib7hgm6m3tmkg,,,,"Kako, Klara milsi, da se Petar tog dana vozio kući?",Klara misli da se Petar tog dana vrlo brzo vozio kući.,fac,,,40,ad_mode,ob + ad_mode,interrogative pronouns
,stimulus,canvas.Screen,2_7_1_0,,,,,,response,8302.600000000006,173856.5,173851.558,173867.9,182170.5,182171.90000000596,2025-02-01T11:25:53.159Z,182199.6,cR4aC90T73,incremental,jednostavno-test,679df971131ae225e46b4282,participant,hcpib7hgm6m3tmkg,,6,click @6,"Kako, Klara milsi, da se Petar tog dana vozio kući?",Klara misli da se Petar tog dana vrlo brzo vozio kući.,fac,,,40,ad_mode,ob + ad_mode,interrogative pronouns
,Timer frame,html.Frame,2_7_1,,,,,,,8304.299999988085,173856.09999999404,173851.558,173867.9,182172.19999998808,182172.40000000596,2025-02-01T11:25:53.159Z,182199.6,cR4aC90T73,incremental,jednostavno-test,679df971131ae225e46b4282,participant,hcpib7hgm6m3tmkg,,,,"Kako, Klara milsi, da se Petar tog dana vozio kući?",Klara misli da se Petar tog dana vrlo brzo vozio kući.,fac,,,40,ad_mode,ob + ad_mode,interrogative pronouns
,inter-stimulus,canvas.Screen,2_7_2,,,,,,response,14404.300000005955,182172.5,182183.088,182199.6,196603.90000000596,196604.69999998808,2025-02-01T11:26:07.592Z,196612.3,cR4aC90T73,incremental,jednostavno-test,679df971131ae225e46b4282,participant,hcpib7hgm6m3tmkg,,,mousedown,"Kako, Klara milsi, da se Petar tog dana vozio kući?",Klara misli da se Petar tog dana vrlo brzo vozio kući.,fac,,,40,ad_mode,ob + ad_mode,interrogative pronouns
,Sequence,flow.Sequence,2_7,,,,,,completion,26101.800000005955,170496.79999998212,170485.7,170502.1,196603.90000000596,196604.79999998212,2025-02-01T11:26:07.592Z,196612.3,cR4aC90T73,incremental,jednostavno-test,679df971131ae225e46b4282,participant,hcpib7hgm6m3tmkg,,,,"Kako, Klara milsi, da se Petar tog dana vozio kući?",Klara misli da se Petar tog dana vrlo brzo vozio kući.,fac,,,40,ad_mode,ob + ad_mode,interrogative pronouns
,context,canvas.Screen,2_8_0_0,,,,,,response,8706.99999998213,196605,196599.024,196612.3,205319.29999998212,205319.79999998212,2025-02-01T11:26:16.307Z,205343.4,cR4aC90T73,incremental,jednostavno-test,679df971131ae225e46b4282,participant,hcpib7hgm6m3tmkg,,,click,Ovo je arhipelag na kojem Tvrtko neće moći provesti vikend s obitelji.,Tvrtko neće moći provesti vikend s obitelji na Bahamima.,neg,0,0,28,ad_place,ad_time + ad_place,relative pronouns
,Timer frame,html.Frame,2_8_0,,,,,,,8707.49999998213,196604.90000000596,196599.024,196612.3,205319.79999998212,205319.79999998212,2025-02-01T11:26:16.307Z,205343.4,cR4aC90T73,incremental,jednostavno-test,679df971131ae225e46b4282,participant,hcpib7hgm6m3tmkg,,,,Ovo je arhipelag na kojem Tvrtko neće moći provesti vikend s obitelji.,Tvrtko neće moći provesti vikend s obitelji na Bahamima.,neg,0,0,28,ad_place,ad_time + ad_place,relative pronouns
,stimulus,canvas.Screen,2_8_1_0,,,,,,response,6750.899999982124,205320,205327.054,205343.4,212094.29999998212,212094.90000000596,2025-02-01T11:26:23.082Z,212108.5,cR4aC90T73,incremental,jednostavno-test,679df971131ae225e46b4282,participant,hcpib7hgm6m3tmkg,,7,click @7,Ovo je arhipelag na kojem Tvrtko neće moći provesti vikend s obitelji.,Tvrtko neće moći provesti vikend s obitelji na Bahamima.,neg,0,0,28,ad_place,ad_time + ad_place,relative pronouns
,Timer frame,html.Frame,2_8_1,,,,,,,6751.600000000006,205319.90000000596,205327.054,205343.4,212095,212095,2025-02-01T11:26:23.082Z,212108.5,cR4aC90T73,incremental,jednostavno-test,679df971131ae225e46b4282,participant,hcpib7hgm6m3tmkg,,,,Ovo je arhipelag na kojem Tvrtko neće moći provesti vikend s obitelji.,Tvrtko neće moći provesti vikend s obitelji na Bahamima.,neg,0,0,28,ad_place,ad_time + ad_place,relative pronouns
,inter-stimulus,canvas.Screen,2_8_2,,,,,,response,1096.5999999940395,212095.09999999404,212091.894,212108.5,213205.09999999404,213205.90000000596,2025-02-01T11:26:24.193Z,213208.3,cR4aC90T73,incremental,jednostavno-test,679df971131ae225e46b4282,participant,hcpib7hgm6m3tmkg,,,mousedown,Ovo je arhipelag na kojem Tvrtko neće moći provesti vikend s obitelji.,Tvrtko neće moći provesti vikend s obitelji na Bahamima.,neg,0,0,28,ad_place,ad_time + ad_place,relative pronouns
,Sequence,flow.Sequence,2_8,,,,,,completion,16592.79999999405,196604.90000000596,196599.024,196612.3,213205.09999999404,213206,2025-02-01T11:26:24.193Z,213208.3,cR4aC90T73,incremental,jednostavno-test,679df971131ae225e46b4282,participant,hcpib7hgm6m3tmkg,,,,Ovo je arhipelag na kojem Tvrtko neće moći provesti vikend s obitelji.,Tvrtko neće moći provesti vikend s obitelji na Bahamima.,neg,0,0,28,ad_place,ad_time + ad_place,relative pronouns
,context,canvas.Screen,2_9_0_0,,,,,,response,5848.899999988091,213206.19999998808,213191.824,213208.3,219057.19999998808,219057.69999998808,2025-02-01T11:26:30.045Z,219090.1,cR4aC90T73,incremental,jednostavno-test,679df971131ae225e46b4282,participant,hcpib7hgm6m3tmkg,,,click,U hladnjaku je bio sladoled koji je otac pitao za koga da kupi u trgovini.,Otac je pitao za koga da kupi sladoled u trgovini.,iq,0,0,15,ob_indir,ob_dir + ob_indir,relative pronouns
,Timer frame,html.Frame,2_9_0,,,,,,,5849.49999998213,213206,213191.824,213208.3,219057.79999998212,219057.90000000596,2025-02-01T11:26:30.045Z,219090.1,cR4aC90T73,incremental,jednostavno-test,679df971131ae225e46b4282,participant,hcpib7hgm6m3tmkg,,,,U hladnjaku je bio sladoled koji je otac pitao za koga da kupi u trgovini.,Otac je pitao za koga da kupi sladoled u trgovini.,iq,0,0,15,ob_indir,ob_dir + ob_indir,relative pronouns
,stimulus,canvas.Screen,2_9_1_0,,,,,,response,6744.099999988073,219058,219073.5,219090.1,225834.19999998808,225834.79999998212,2025-02-01T11:26:36.822Z,225838.4,cR4aC90T73,incremental,jednostavno-test,679df971131ae225e46b4282,participant,hcpib7hgm6m3tmkg,,1,click @1,U hladnjaku je bio sladoled koji je otac pitao za koga da kupi u trgovini.,Otac je pitao za koga da kupi sladoled u trgovini.,iq,0,0,15,ob_indir,ob_dir + ob_indir,relative pronouns
,Timer frame,html.Frame,2_9_1,,,,,,,6744.699999982113,219057.90000000596,219073.5,219090.1,225834.79999998212,225834.90000000596,2025-02-01T11:26:36.822Z,225838.4,cR4aC90T73,incremental,jednostavno-test,679df971131ae225e46b4282,participant,hcpib7hgm6m3tmkg,,,,U hladnjaku je bio sladoled koji je otac pitao za koga da kupi u trgovini.,Otac je pitao za koga da kupi sladoled u trgovini.,iq,0,0,15,ob_indir,ob_dir + ob_indir,relative pronouns
,inter-stimulus,canvas.Screen,2_9_2,,,,,,response,1172.8999999821244,225834.90000000596,225821.986,225838.4,227011.29999998212,227011.90000000596,2025-02-01T11:26:37.999Z,227021.5,cR4aC90T73,incremental,jednostavno-test,679df971131ae225e46b4282,participant,hcpib7hgm6m3tmkg,,,mousedown,U hladnjaku je bio sladoled koji je otac pitao za koga da kupi u trgovini.,Otac je pitao za koga da kupi sladoled u trgovini.,iq,0,0,15,ob_indir,ob_dir + ob_indir,relative pronouns
,Sequence,flow.Sequence,2_9,,,,,,completion,13802.99999998213,213206,213191.824,213208.3,227011.29999998212,227012,2025-02-01T11:26:37.999Z,227021.5,cR4aC90T73,incremental,jednostavno-test,679df971131ae225e46b4282,participant,hcpib7hgm6m3tmkg,,,,U hladnjaku je bio sladoled koji je otac pitao za koga da kupi u trgovini.,Otac je pitao za koga da kupi sladoled u trgovini.,iq,0,0,15,ob_indir,ob_dir + ob_indir,relative pronouns
,context,canvas.Screen,2_10_0_0,,,,,,response,2776.4000000059605,227012.19999998808,227005.054,227021.5,229797.90000000596,229798.5,2025-02-01T11:26:40.785Z,229804.1,cR4aC90T73,incremental,jednostavno-test,679df971131ae225e46b4282,participant,hcpib7hgm6m3tmkg,,,click,Što je Anton napisao u pismu?,Anton je u pismu napisao besmislicu.,gf,,,45,filler,filler,filler
,Timer frame,html.Frame,2_10_0,,,,,,,2777,227012.09999999404,227005.054,227021.5,229798.5,229798.59999999404,2025-02-01T11:26:40.786Z,229804.1,cR4aC90T73,incremental,jednostavno-test,679df971131ae225e46b4282,participant,hcpib7hgm6m3tmkg,,,,Što je Anton napisao u pismu?,Anton je u pismu napisao besmislicu.,gf,,,45,filler,filler,filler
,stimulus,canvas.Screen,2_10_1_0,,,,,,response,4898.499999994034,229798.69999998808,229788.798,229804.1,234702.59999999404,234703.40000000596,2025-02-01T11:26:45.690Z,234719.6,cR4aC90T73,incremental,jednostavno-test,679df971131ae225e46b4282,participant,hcpib7hgm6m3tmkg,,7,click @7,Što je Anton napisao u pismu?,Anton je u pismu napisao besmislicu.,gf,,,45,filler,filler,filler
,Timer frame,html.Frame,2_10_1,,,,,,,4899.399999999994,229798.59999999404,229788.798,229804.1,234703.5,234703.59999999404,2025-02-01T11:26:45.691Z,234719.6,cR4aC90T73,incremental,jednostavno-test,679df971131ae225e46b4282,participant,hcpib7hgm6m3tmkg,,,,Što je Anton napisao u pismu?,Anton je u pismu napisao besmislicu.,gf,,,45,filler,filler,filler
,inter-stimulus,canvas.Screen,2_10_2,,,,,,response,1208.6999999821128,234703.59999999404,234703.232,234719.6,235928.29999998212,235928.90000000596,2025-02-01T11:26:46.916Z,235936.1,cR4aC90T73,incremental,jednostavno-test,679df971131ae225e46b4282,participant,hcpib7hgm6m3tmkg,,,mousedown,Što je Anton napisao u pismu?,Anton je u pismu napisao besmislicu.,gf,,,45,filler,filler,filler
,Sequence,flow.Sequence,2_10,,,,,,completion,8906.799999982119,227012.09999999404,227005.054,227021.5,235928.29999998212,235929,2025-02-01T11:26:46.916Z,235936.1,cR4aC90T73,incremental,jednostavno-test,679df971131ae225e46b4282,participant,hcpib7hgm6m3tmkg,,,,Što je Anton napisao u pismu?,Anton je u pismu napisao besmislicu.,gf,,,45,filler,filler,filler
,context,canvas.Screen,2_11_0_0,,,,,,response,4082.199999982113,235929.09999999404,235919.686,235936.1,240018.29999998212,240018.69999998808,2025-02-01T11:26:51.006Z,240035,cR4aC90T73,incremental,jednostavno-test,679df971131ae225e46b4282,participant,hcpib7hgm6m3tmkg,,,click,Koliko slonova Ivo je rekao da je vidio na safariju?,Ivo je rekao da je vidio dva slona na safariju.,fac,,,36,ad_measure,ob_dir + ad_mode + ad_measure,interrogative pronouns
,Timer frame,html.Frame,2_11_0,,,,,,,4082.699999982113,235929.09999999404,235919.686,235936.1,240018.79999998212,240018.79999998212,2025-02-01T11:26:51.006Z,240035,cR4aC90T73,incremental,jednostavno-test,679df971131ae225e46b4282,participant,hcpib7hgm6m3tmkg,,,,Koliko slonova Ivo je rekao da je vidio na safariju?,Ivo je rekao da je vidio dva slona na safariju.,fac,,,36,ad_measure,ob_dir + ad_mode + ad_measure,interrogative pronouns
,stimulus,canvas.Screen,2_11_1_0,,,,,,response,6201.5,240019,240018.43,240035,246236.5,246237,2025-02-01T11:26:57.224Z,246266.9,cR4aC90T73,incremental,jednostavno-test,679df971131ae225e46b4282,participant,hcpib7hgm6m3tmkg,,3,click @3,Koliko slonova Ivo je rekao da je vidio na safariju?,Ivo je rekao da je vidio dva slona na safariju.,fac,,,36,ad_measure,ob_dir + ad_mode + ad_measure,interrogative pronouns
,Timer frame,html.Frame,2_11_1,,,,,,,6202.0999999940395,240018.90000000596,240018.43,240035,246237.09999999404,246237.09999999404,2025-02-01T11:26:57.224Z,246266.9,cR4aC90T73,incremental,jednostavno-test,679df971131ae225e46b4282,participant,hcpib7hgm6m3tmkg,,,,Koliko slonova Ivo je rekao da je vidio na safariju?,Ivo je rekao da je vidio dva slona na safariju.,fac,,,36,ad_measure,ob_dir + ad_mode + ad_measure,interrogative pronouns
,inter-stimulus,canvas.Screen,2_11_2,,,,,,response,999.5000000059663,246237.19999998808,246250.372,246266.9,247266.40000000596,247267,2025-02-01T11:26:58.254Z,247283.2,cR4aC90T73,incremental,jednostavno-test,679df971131ae225e46b4282,participant,hcpib7hgm6m3tmkg,,,mousedown,Koliko slonova Ivo je rekao da je vidio na safariju?,Ivo je rekao da je vidio dva slona na safariju.,fac,,,36,ad_measure,ob_dir + ad_mode + ad_measure,interrogative pronouns
,Sequence,flow.Sequence,2_11,,,,,,completion,11330.300000005955,235929,235919.686,235936.1,247266.40000000596,247267.09999999404,2025-02-01T11:26:58.254Z,247283.2,cR4aC90T73,incremental,jednostavno-test,679df971131ae225e46b4282,participant,hcpib7hgm6m3tmkg,,,,Koliko slonova Ivo je rekao da je vidio na safariju?,Ivo je rekao da je vidio dva slona na safariju.,fac,,,36,ad_measure,ob_dir + ad_mode + ad_measure,interrogative pronouns
,context,canvas.Screen,2_12_0_0,,,,,,response,3885.9999999880674,247267.19999998808,247266.86,247283.2,251169.19999998808,251169.79999998212,2025-02-01T11:27:02.157Z,251199,cR4aC90T73,incremental,jednostavno-test,679df971131ae225e46b4282,participant,hcpib7hgm6m3tmkg,,,click,Danas se moja mala sestra ponaša na taj način na koji se ne ponašala prije,U posljednje vrijeme moja mala sestra ne ponaša se kao prije.,neg,,0,29,ad_mode,ad_mode + ad_measure,relative pronouns
,Timer frame,html.Frame,2_12_0,,,,,,,3886.700000005949,247267.19999998808,247266.86,247283.2,251169.90000000596,251170,2025-02-01T11:27:02.157Z,251199,cR4aC90T73,incremental,jednostavno-test,679df971131ae225e46b4282,participant,hcpib7hgm6m3tmkg,,,,Danas se moja mala sestra ponaša na taj način na koji se ne ponašala prije,U posljednje vrijeme moja mala sestra ne ponaša se kao prije.,neg,,0,29,ad_mode,ad_mode + ad_measure,relative pronouns
,stimulus,canvas.Screen,2_12_1_0,,,,,,timeout,10997.299999999988,251170.09999999404,251182.496,251199,262179.6,262180.2999999821,2025-02-01T11:27:13.167Z,262196.3,cR4aC90T73,incremental,jednostavno-test,679df971131ae225e46b4282,participant,hcpib7hgm6m3tmkg,,,,Danas se moja mala sestra ponaša na taj način na koji se ne ponašala prije,U posljednje vrijeme moja mala sestra ne ponaša se kao prije.,neg,,0,29,ad_mode,ad_mode + ad_measure,relative pronouns
,Timer frame,html.Frame,2_12_1,,,,,,,10981.299999982119,251170,251182.496,251199,262180.2999999821,262180.40000000596,2025-02-01T11:27:13.167Z,262212.9,cR4aC90T73,incremental,jednostavno-test,679df971131ae225e46b4282,participant,hcpib7hgm6m3tmkg,,,,Danas se moja mala sestra ponaša na taj način na koji se ne ponašala prije,U posljednje vrijeme moja mala sestra ne ponaša se kao prije.,neg,,0,29,ad_mode,ad_mode + ad_measure,relative pronouns
,inter-stimulus,canvas.Screen,2_12_2,,,,,,response,418.3999999820953,262180.40000000596,262196.3,262212.9,262631.2999999821,262632.1999999881,2025-02-01T11:27:13.619Z,262646.2,cR4aC90T73,incremental,jednostavno-test,679df971131ae225e46b4282,participant,hcpib7hgm6m3tmkg,,,mousedown,Danas se moja mala sestra ponaša na taj način na koji se ne ponašala prije,U posljednje vrijeme moja mala sestra ne ponaša se kao prije.,neg,,0,29,ad_mode,ad_mode + ad_measure,relative pronouns
,Sequence,flow.Sequence,2_12,,,,,,completion,15348.099999982107,247267.19999998808,247266.86,247283.2,262631.2999999821,262632.2999999821,2025-02-01T11:27:13.619Z,262646.2,cR4aC90T73,incremental,jednostavno-test,679df971131ae225e46b4282,participant,hcpib7hgm6m3tmkg,,,,Danas se moja mala sestra ponaša na taj način na koji se ne ponašala prije,U posljednje vrijeme moja mala sestra ne ponaša se kao prije.,neg,,0,29,ad_mode,ad_mode + ad_measure,relative pronouns
,context,canvas.Screen,2_13_0_0,,,,,,response,4042.4999999880674,262632.40000000596,262629.6,262646.2,266688.6999999881,266689.90000000596,2025-02-01T11:27:17.677Z,266711.9,cR4aC90T73,incremental,jednostavno-test,679df971131ae225e46b4282,participant,hcpib7hgm6m3tmkg,,,click,Pronašao sam tu stvar koju znam da je Marina izgubila.,Znam da je Marina izgubila ključeve.,fac,0,,41,ob,ob + ob,non-interrogative component
,Timer frame,html.Frame,2_13_0,,,,,,,4043.899999994028,262632.40000000596,262629.6,262646.2,266690.09999999404,266690.2999999821,2025-02-01T11:27:17.677Z,266711.9,cR4aC90T73,incremental,jednostavno-test,679df971131ae225e46b4282,participant,hcpib7hgm6m3tmkg,,,,Pronašao sam tu stvar koju znam da je Marina izgubila.,Znam da je Marina izgubila ključeve.,fac,0,,41,ob,ob + ob,non-interrogative component
,stimulus,canvas.Screen,2_13_1_0,,,,,,response,5574.099999999977,266690.6999999881,266695.3,266711.9,272286,272287.5,2025-02-01T11:27:23.275Z,272293.9,cR4aC90T73,incremental,jednostavno-test,679df971131ae225e46b4282,participant,hcpib7hgm6m3tmkg,,7,click @7,Pronašao sam tu stvar koju znam da je Marina izgubila.,Znam da je Marina izgubila ključeve.,fac,0,,41,ob,ob + ob,non-interrogative component
,Timer frame,html.Frame,2_13_1,,,,,,,5575.799999988056,266690.40000000596,266695.3,266711.9,272287.6999999881,272287.90000000596,2025-02-01T11:27:23.275Z,272293.9,cR4aC90T73,incremental,jednostavno-test,679df971131ae225e46b4282,participant,hcpib7hgm6m3tmkg,,,,Pronašao sam tu stvar koju znam da je Marina izgubila.,Znam da je Marina izgubila ključeve.,fac,0,,41,ob,ob + ob,non-interrogative component
,inter-stimulus,canvas.Screen,2_13_2,,,,,,response,1704.3999999820953,272288,272278.964,272293.9,273998.2999999821,274000,2025-02-01T11:27:24.987Z,274010,cR4aC90T73,incremental,jednostavno-test,679df971131ae225e46b4282,participant,hcpib7hgm6m3tmkg,,,mousedown,Pronašao sam tu stvar koju znam da je Marina izgubila.,Znam da je Marina izgubila ključeve.,fac,0,,41,ob,ob + ob,non-interrogative component
,Sequence,flow.Sequence,2_13,,,,,,completion,11352.099999982107,262632.2999999821,262629.6,262646.2,273998.2999999821,274000.2999999821,2025-02-01T11:27:24.987Z,274010,cR4aC90T73,incremental,jednostavno-test,679df971131ae225e46b4282,participant,hcpib7hgm6m3tmkg,,,,Pronašao sam tu stvar koju znam da je Marina izgubila.,Znam da je Marina izgubila ključeve.,fac,0,,41,ob,ob + ob,non-interrogative component
,context,canvas.Screen,2_14_0_0,,,,,,response,1945.5,274000.59999999404,273994.066,274010,275955.5,275956.6999999881,2025-02-01T11:27:26.944Z,275959.7,cR4aC90T73,incremental,jednostavno-test,679df971131ae225e46b4282,participant,hcpib7hgm6m3tmkg,,,click,Želim pojesti jabuku što?,Želim pojesti jabuku.,nf,,,51,filler,filler,filler
,Timer frame,html.Frame,2_14_0,,,,,,,1947,274000.5,273994.066,274010,275957,275957.1999999881,2025-02-01T11:27:26.944Z,275959.7,cR4aC90T73,incremental,jednostavno-test,679df971131ae225e46b4282,participant,hcpib7hgm6m3tmkg,,,,Želim pojesti jabuku što?,Želim pojesti jabuku.,nf,,,51,filler,filler,filler
,stimulus,canvas.Screen,2_14_1_0,,,,,,response,4095.899999994028,275957.59999999404,275943.462,275959.7,280055.59999999404,280056.7999999821,2025-02-01T11:27:31.044Z,280076.3,cR4aC90T73,incremental,jednostavno-test,679df971131ae225e46b4282,participant,hcpib7hgm6m3tmkg,,1,click @1,Želim pojesti jabuku što?,Želim pojesti jabuku.,nf,,,51,filler,filler,filler
,Timer frame,html.Frame,2_14_1,,,,,,,4097.299999999988,275957.40000000596,275943.462,275959.7,280057,280057.09999999404,2025-02-01T11:27:31.044Z,280076.3,cR4aC90T73,incremental,jednostavno-test,679df971131ae225e46b4282,participant,hcpib7hgm6m3tmkg,,,,Želim pojesti jabuku što?,Želim pojesti jabuku.,nf,,,51,filler,filler,filler
,inter-stimulus,canvas.Screen,2_14_2,,,,,,response,820.6000000059721,280057.2999999821,280042.364,280076.3,280896.90000000596,280897.6999999881,2025-02-01T11:27:31.885Z,280908.7,cR4aC90T73,incremental,jednostavno-test,679df971131ae225e46b4282,participant,hcpib7hgm6m3tmkg,,,mousedown,Želim pojesti jabuku što?,Želim pojesti jabuku.,nf,,,51,filler,filler,filler
,Sequence,flow.Sequence,2_14,,,,,,completion,6886.9000000059605,274000.5,273994.066,274010,280896.90000000596,280897.7999999821,2025-02-01T11:27:31.885Z,280908.7,cR4aC90T73,incremental,jednostavno-test,679df971131ae225e46b4282,participant,hcpib7hgm6m3tmkg,,,,Želim pojesti jabuku što?,Želim pojesti jabuku.,nf,,,51,filler,filler,filler
,context,canvas.Screen,2_15_0_0,,,,,,response,3892.9999999880674,280898,280892.1,280908.7,284801.6999999881,284803.2999999821,2025-02-01T11:27:35.790Z,284824.1,cR4aC90T73,incremental,jednostavno-test,679df971131ae225e46b4282,participant,hcpib7hgm6m3tmkg,,,click,Tražim ove slušalice koje sam pitao Antona gdje je ostavio.,Pitao sam Antona gdje je ostavio moje slušalice.,iq,0,0,16,ob,ob + ad,relative pronouns
,Timer frame,html.Frame,2_15_0,,,,,,,3894.7999999999884,280897.90000000596,280892.1,280908.7,284803.5,284803.59999999404,2025-02-01T11:27:35.791Z,284824.1,cR4aC90T73,incremental,jednostavno-test,679df971131ae225e46b4282,participant,hcpib7hgm6m3tmkg,,,,Tražim ove slušalice koje sam pitao Antona gdje je ostavio.,Pitao sam Antona gdje je ostavio moje slušalice.,iq,0,0,16,ob,ob + ad,relative pronouns
,stimulus,canvas.Screen,2_15_1_0,,,,,,response,4902.900000000023,284804,284808.124,284824.1,289727,289728.1999999881,2025-02-01T11:27:40.715Z,289756.4,cR4aC90T73,incremental,jednostavno-test,679df971131ae225e46b4282,participant,hcpib7hgm6m3tmkg,,4,click @4,Tražim ove slušalice koje sam pitao Antona gdje je ostavio.,Pitao sam Antona gdje je ostavio moje slušalice.,iq,0,0,16,ob,ob + ad,relative pronouns
,Timer frame,html.Frame,2_15_1,,,,,,,4904.499999994063,284803.7999999821,284808.124,284824.1,289728.59999999404,289728.6999999881,2025-02-01T11:27:40.716Z,289756.4,cR4aC90T73,incremental,jednostavno-test,679df971131ae225e46b4282,participant,hcpib7hgm6m3tmkg,,,,Tražim ove slušalice koje sam pitao Antona gdje je ostavio.,Pitao sam Antona gdje je ostavio moje slušalice.,iq,0,0,16,ob,ob + ad,relative pronouns
,inter-stimulus,canvas.Screen,2_15_2,,,,,,response,2655.0999999999767,289728.90000000596,289740.1,289756.4,292411.5,292412.40000000596,2025-02-01T11:27:43.399Z,292422.4,cR4aC90T73,incremental,jednostavno-test,679df971131ae225e46b4282,participant,hcpib7hgm6m3tmkg,,,mousedown,Tražim ove slušalice koje sam pitao Antona gdje je ostavio.,Pitao sam Antona gdje je ostavio moje slušalice.,iq,0,0,16,ob,ob + ad,relative pronouns
,Sequence,flow.Sequence,2_15,,,,,,completion,11502.799999999988,280897.7999999821,280892.1,280908.7,292411.5,292412.59999999404,2025-02-01T11:27:43.400Z,292422.4,cR4aC90T73,incremental,jednostavno-test,679df971131ae225e46b4282,participant,hcpib7hgm6m3tmkg,,,,Tražim ove slušalice koje sam pitao Antona gdje je ostavio.,Pitao sam Antona gdje je ostavio moje slušalice.,iq,0,0,16,ob,ob + ad,relative pronouns
,context,canvas.Screen,2_16_0_0,,,,,,response,2678.500000005937,292412.6999999881,292406.294,292422.4,295100.90000000596,295101.90000000596,2025-02-01T11:27:46.089Z,295104.9,cR4aC90T73,incremental,jednostavno-test,679df971131ae225e46b4282,participant,hcpib7hgm6m3tmkg,,,click,Kakvog koga primijetila sam otkud se vraćajući na krovu čega?,Vraćajući se iz apoteke primijetila sam malog mačića na krovu auta.,nf,,,52,filler,filler,filler
,Timer frame,html.Frame,2_16_0,,,,,,,2679.799999988056,292412.59999999404,292406.294,292422.4,295102.1999999881,295102.2999999821,2025-02-01T11:27:46.089Z,295104.9,cR4aC90T73,incremental,jednostavno-test,679df971131ae225e46b4282,participant,hcpib7hgm6m3tmkg,,,,Kakvog koga primijetila sam otkud se vraćajući na krovu čega?,Vraćajući se iz apoteke primijetila sam malog mačića na krovu auta.,nf,,,52,filler,filler,filler
,stimulus,canvas.Screen,2_16_1_0,,,,,,response,4823.699999994016,295103,295088.764,295104.9,299928.59999999404,299929.09999999404,2025-02-01T11:27:50.916Z,299953.8,cR4aC90T73,incremental,jednostavno-test,679df971131ae225e46b4282,participant,hcpib7hgm6m3tmkg,,2,click @2,Kakvog koga primijetila sam otkud se vraćajući na krovu čega?,Vraćajući se iz apoteke primijetila sam malog mačića na krovu auta.,nf,,,52,filler,filler,filler
,Timer frame,html.Frame,2_16_1,,,,,,,4824.299999988056,295102.59999999404,295088.764,295104.9,299929.1999999881,299929.2999999821,2025-02-01T11:27:50.916Z,299953.8,cR4aC90T73,incremental,jednostavno-test,679df971131ae225e46b4282,participant,hcpib7hgm6m3tmkg,,,,Kakvog koga primijetila sam otkud se vraćajući na krovu čega?,Vraćajući se iz apoteke primijetila sam malog mačića na krovu auta.,nf,,,52,filler,filler,filler
,inter-stimulus,canvas.Screen,2_16_2,,,,,,response,1628.3999999880907,299929.2999999821,299937.2,299953.8,301582.1999999881,301582.90000000596,2025-02-01T11:27:52.570Z,301586.7,cR4aC90T73,incremental,jednostavno-test,679df971131ae225e46b4282,participant,hcpib7hgm6m3tmkg,,,mousedown,Kakvog koga primijetila sam otkud se vraćajući na krovu čega?,Vraćajući se iz apoteke primijetila sam malog mačića na krovu auta.,nf,,,52,filler,filler,filler
,Sequence,flow.Sequence,2_16,,,,,,completion,9159.799999988056,292412.59999999404,292406.294,292422.4,301582.1999999881,301583.09999999404,2025-02-01T11:27:52.570Z,301586.7,cR4aC90T73,incremental,jednostavno-test,679df971131ae225e46b4282,participant,hcpib7hgm6m3tmkg,,,,Kakvog koga primijetila sam otkud se vraćajući na krovu čega?,Vraćajući se iz apoteke primijetila sam malog mačića na krovu auta.,nf,,,52,filler,filler,filler
,context,canvas.Screen,2_17_0_0,,,,,,response,4700.200000005949,301583.2999999821,301570.402,301586.7,306286.90000000596,306288.09999999404,2025-02-01T11:27:57.275Z,306319,cR4aC90T73,incremental,jednostavno-test,679df971131ae225e46b4282,participant,hcpib7hgm6m3tmkg,,,click,Kome smo poklonili novi bicikl?,Dobrom poštaru poklonili smo novi bicikl.,gf,,0,48,filler,filler,filler
,Timer frame,html.Frame,2_17_0,,,,,,,4701.599999982107,301583.09999999404,301570.402,301586.7,306288.2999999821,306288.5,2025-02-01T11:27:57.276Z,306319,cR4aC90T73,incremental,jednostavno-test,679df971131ae225e46b4282,participant,hcpib7hgm6m3tmkg,,,,Kome smo poklonili novi bicikl?,Dobrom poštaru poklonili smo novi bicikl.,gf,,0,48,filler,filler,filler
,stimulus,canvas.Screen,2_17_1_0,,,,,,response,2817.4000000059605,306289,306302.5,306319,309136.40000000596,309137.1999999881,2025-02-01T11:28:00.124Z,309168.3,cR4aC90T73,incremental,jednostavno-test,679df971131ae225e46b4282,participant,hcpib7hgm6m3tmkg,,7,click @7,Kome smo poklonili novi bicikl?,Dobrom poštaru poklonili smo novi bicikl.,gf,,0,48,filler,filler,filler
,Timer frame,html.Frame,2_17_1,,,,,,,2818.4000000059605,306288.59999999404,306302.5,306319,309137.40000000596,309137.40000000596,2025-02-01T11:28:00.124Z,309168.3,cR4aC90T73,incremental,jednostavno-test,679df971131ae225e46b4282,participant,hcpib7hgm6m3tmkg,,,,Kome smo poklonili novi bicikl?,Dobrom poštaru poklonili smo novi bicikl.,gf,,0,48,filler,filler,filler
,inter-stimulus,canvas.Screen,2_17_2,,,,,,response,1085.100000005972,309137.5,309151.7,309168.3,310253.40000000596,310254.1999999881,2025-02-01T11:28:01.241Z,310267.9,cR4aC90T73,incremental,jednostavno-test,679df971131ae225e46b4282,participant,hcpib7hgm6m3tmkg,,,mousedown,Kome smo poklonili novi bicikl?,Dobrom poštaru poklonili smo novi bicikl.,gf,,0,48,filler,filler,filler
,Sequence,flow.Sequence,2_17,,,,,,completion,8666.700000005949,301583.09999999404,301570.402,301586.7,310253.40000000596,310254.2999999821,2025-02-01T11:28:01.241Z,310267.9,cR4aC90T73,incremental,jednostavno-test,679df971131ae225e46b4282,participant,hcpib7hgm6m3tmkg,,,,Kome smo poklonili novi bicikl?,Dobrom poštaru poklonili smo novi bicikl.,gf,,0,48,filler,filler,filler
,context,canvas.Screen,2_18_0_0,,,,,,response,2416.000000005937,310254.40000000596,310251.6,310267.9,312683.90000000596,312685.09999999404,2025-02-01T11:28:03.672Z,312700.6,cR4aC90T73,incremental,jednostavno-test,679df971131ae225e46b4282,participant,hcpib7hgm6m3tmkg,,,click,Kime je sanjao moj djed da postane a ne biznesmen kao je sad?,Moj djed je sanjao da postane pjevač a postao je biznismen.,nf,,,54,filler,filler,filler
,Timer frame,html.Frame,2_18_0,,,,,,,2417.5999999999767,310254.40000000596,310251.6,310267.9,312685.5,312685.5,2025-02-01T11:28:03.673Z,312700.6,cR4aC90T73,incremental,jednostavno-test,679df971131ae225e46b4282,participant,hcpib7hgm6m3tmkg,,,,Kime je sanjao moj djed da postane a ne biznesmen kao je sad?,Moj djed je sanjao da postane pjevač a postao je biznismen.,nf,,,54,filler,filler,filler
,stimulus,canvas.Screen,2_18_1_0,,,,,,response,4293.800000005984,312686,312684.254,312700.6,316994.40000000596,316995.7999999821,2025-02-01T11:28:07.983Z,317016.5,cR4aC90T73,incremental,jednostavno-test,679df971131ae225e46b4282,participant,hcpib7hgm6m3tmkg,,1,click @1,Kime je sanjao moj djed da postane a ne biznesmen kao je sad?,Moj djed je sanjao da postane pjevač a postao je biznismen.,nf,,,54,filler,filler,filler
,Timer frame,html.Frame,2_18_1,,,,,,,4295.300000005984,312685.6999999881,312684.254,312700.6,316995.90000000596,316996.09999999404,2025-02-01T11:28:07.983Z,317016.5,cR4aC90T73,incremental,jednostavno-test,679df971131ae225e46b4282,participant,hcpib7hgm6m3tmkg,,,,Kime je sanjao moj djed da postane a ne biznesmen kao je sad?,Moj djed je sanjao da postane pjevač a postao je biznismen.,nf,,,54,filler,filler,filler
,inter-stimulus,canvas.Screen,2_18_2,,,,,,response,2132.2999999821186,316996.1999999881,317000.18,317016.5,319148.7999999821,319150.5,2025-02-01T11:28:10.138Z,319165.8,cR4aC90T73,incremental,jednostavno-test,679df971131ae225e46b4282,participant,hcpib7hgm6m3tmkg,,,mousedown,Kime je sanjao moj djed da postane a ne biznesmen kao je sad?,Moj djed je sanjao da postane pjevač a postao je biznismen.,nf,,,54,filler,filler,filler
,Sequence,flow.Sequence,2_18,,,,,,completion,8880.899999982095,310254.2999999821,310251.6,310267.9,319148.7999999821,319150.90000000596,2025-02-01T11:28:10.138Z,319165.8,cR4aC90T73,incremental,jednostavno-test,679df971131ae225e46b4282,participant,hcpib7hgm6m3tmkg,,,,Kime je sanjao moj djed da postane a ne biznesmen kao je sad?,Moj djed je sanjao da postane pjevač a postao je biznismen.,nf,,,54,filler,filler,filler
,context,canvas.Screen,2_19_0_0,,,,,,response,2879.600000005972,319151.2999999821,319149.748,319165.8,322045.40000000596,322046.6999999881,2025-02-01T11:28:13.034Z,322066.3,cR4aC90T73,incremental,jednostavno-test,679df971131ae225e46b4282,participant,hcpib7hgm6m3tmkg,,,click,"Gdje, tvoja prijateljica pitala je, tko radi?",Tvoja prijateljica pitala je tko radi u školi.,iq,0,0,3,ad,sub + ob,interrogative pronouns
,Timer frame,html.Frame,2_19_0,,,,,,,2880.9999999821302,319151.09999999404,319149.748,319165.8,322046.7999999821,322047,2025-02-01T11:28:13.034Z,322066.3,cR4aC90T73,incremental,jednostavno-test,679df971131ae225e46b4282,participant,hcpib7hgm6m3tmkg,,,,"Gdje, tvoja prijateljica pitala je, tko radi?",Tvoja prijateljica pitala je tko radi u školi.,iq,0,0,3,ad,sub + ob,interrogative pronouns
,stimulus,canvas.Screen,2_19_1_0,,,,,,response,7864.399999988091,322047.5,322048.726,322066.3,329930.6999999881,329932.09999999404,2025-02-01T11:28:20.919Z,329946.5,cR4aC90T73,incremental,jednostavno-test,679df971131ae225e46b4282,participant,hcpib7hgm6m3tmkg,,2,click @2,"Gdje, tvoja prijateljica pitala je, tko radi?",Tvoja prijateljica pitala je tko radi u školi.,iq,0,0,3,ad,sub + ob,interrogative pronouns
,Timer frame,html.Frame,2_19_1,,,,,,,7866.100000005972,322047.1999999881,322048.726,322066.3,329932.40000000596,329932.6999999881,2025-02-01T11:28:20.920Z,329946.5,cR4aC90T73,incremental,jednostavno-test,679df971131ae225e46b4282,participant,hcpib7hgm6m3tmkg,,,,"Gdje, tvoja prijateljica pitala je, tko radi?",Tvoja prijateljica pitala je tko radi u školi.,iq,0,0,3,ad,sub + ob,interrogative pronouns
,inter-stimulus,canvas.Screen,2_19_2,,,,,,response,1177,329932.7999999821,329930.126,329946.5,331123.5,331125,2025-02-01T11:28:22.112Z,331129.5,cR4aC90T73,incremental,jednostavno-test,679df971131ae225e46b4282,participant,hcpib7hgm6m3tmkg,,,mousedown,"Gdje, tvoja prijateljica pitala je, tko radi?",Tvoja prijateljica pitala je tko radi u školi.,iq,0,0,3,ad,sub + ob,interrogative pronouns
,Sequence,flow.Sequence,2_19,,,,,,completion,11957.700000000012,319151,319149.748,319165.8,331123.5,331125.40000000596,2025-02-01T11:28:22.112Z,331129.5,cR4aC90T73,incremental,jednostavno-test,679df971131ae225e46b4282,participant,hcpib7hgm6m3tmkg,,,,"Gdje, tvoja prijateljica pitala je, tko radi?",Tvoja prijateljica pitala je tko radi u školi.,iq,0,0,3,ad,sub + ob,interrogative pronouns
,context,canvas.Screen,2_20_0_0,,,,,,response,4383.4000000059605,331126.09999999404,331113.3,331129.5,335512.90000000596,335514.09999999404,2025-02-01T11:28:26.501Z,335528.7,cR4aC90T73,incremental,jednostavno-test,679df971131ae225e46b4282,participant,hcpib7hgm6m3tmkg,,,click,Došla je ta djevojka o kojoj sam pitao što je jela u restoranu.,Pitao sam što je Jasna jela u restoranu.,iq,,0,10,sub,sub + ob,relative pronouns
,Timer frame,html.Frame,2_20_0,,,,,,,4384.699999988079,331125.5,331113.3,331129.5,335514.1999999881,335514.40000000596,2025-02-01T11:28:26.501Z,335528.7,cR4aC90T73,incremental,jednostavno-test,679df971131ae225e46b4282,participant,hcpib7hgm6m3tmkg,,,,Došla je ta djevojka o kojoj sam pitao što je jela u restoranu.,Pitao sam što je Jasna jela u restoranu.,iq,,0,10,sub,sub + ob,relative pronouns
,stimulus,canvas.Screen,2_20_1_0,,,,,,response,4514.200000005949,335514.90000000596,335512.164,335528.7,340042.90000000596,340044.1999999881,2025-02-01T11:28:31.031Z,340060.7,cR4aC90T73,incremental,jednostavno-test,679df971131ae225e46b4282,participant,hcpib7hgm6m3tmkg,,1,click @1,Došla je ta djevojka o kojoj sam pitao što je jela u restoranu.,Pitao sam što je Jasna jela u restoranu.,iq,,0,10,sub,sub + ob,relative pronouns
,Timer frame,html.Frame,2_20_1,,,,,,,4515.700000005949,335514.59999999404,335512.164,335528.7,340044.40000000596,340044.59999999404,2025-02-01T11:28:31.032Z,340060.7,cR4aC90T73,incremental,jednostavno-test,679df971131ae225e46b4282,participant,hcpib7hgm6m3tmkg,,,,Došla je ta djevojka o kojoj sam pitao što je jela u restoranu.,Pitao sam što je Jasna jela u restoranu.,iq,,0,10,sub,sub + ob,relative pronouns
,inter-stimulus,canvas.Screen,2_20_2,,,,,,response,701.599999982107,340044.7999999821,340044.426,340060.7,340762.2999999821,340764,2025-02-01T11:28:31.751Z,340777.3,cR4aC90T73,incremental,jednostavno-test,679df971131ae225e46b4282,participant,hcpib7hgm6m3tmkg,,,mousedown,Došla je ta djevojka o kojoj sam pitao što je jela u restoranu.,Pitao sam što je Jasna jela u restoranu.,iq,,0,10,sub,sub + ob,relative pronouns
,Sequence,flow.Sequence,2_20,,,,,,completion,9632.799999982119,331125.5,331113.3,331129.5,340762.2999999821,340764.40000000596,2025-02-01T11:28:31.751Z,340777.3,cR4aC90T73,incremental,jednostavno-test,679df971131ae225e46b4282,participant,hcpib7hgm6m3tmkg,,,,Došla je ta djevojka o kojoj sam pitao što je jela u restoranu.,Pitao sam što je Jasna jela u restoranu.,iq,,0,10,sub,sub + ob,relative pronouns
,context,canvas.Screen,2_21_0_0,,,,,,response,2494.799999994051,340765,340760.906,340777.3,343272.09999999404,343273,2025-02-01T11:28:34.260Z,,cR4aC90T73,incremental,jednostavno-test,679df971131ae225e46b4282,participant,hcpib7hgm6m3tmkg,,,click,U susjednom stanu živio je čovjek kojeg sam pitao koliko mu auto troši benzina.,Pitao sam vlasnika kamioneta koliko benzina troši njegov auto.,iq,,,14,ob_dir,ob_dir + ob_indir,relative pronouns
,Timer frame,html.Frame,2_21_0,,,,,,,2495.9999999821302,340764.59999999404,340760.906,340777.3,343273.2999999821,343273.5,2025-02-01T11:28:34.260Z,,cR4aC90T73,incremental,jednostavno-test,679df971131ae225e46b4282,participant,hcpib7hgm6m3tmkg,,,,U susjednom stanu živio je čovjek kojeg sam pitao koliko mu auto troši benzina.,Pitao sam vlasnika kamioneta koliko benzina troši njegov auto.,iq,,,14,ob_dir,ob_dir + ob_indir,relative pronouns
,stimulus,canvas.Screen,2_21_1_0,,,,,,response,5254.899999988091,343273.6999999881,343276.996,343293.3,348548.1999999881,348549.5,2025-02-01T11:28:39.537Z,348558.7,cR4aC90T73,incremental,jednostavno-test,679df971131ae225e46b4282,participant,hcpib7hgm6m3tmkg,,6,click @6,U susjednom stanu živio je čovjek kojeg sam pitao koliko mu auto troši benzina.,Pitao sam vlasnika kamioneta koliko benzina troši njegov auto.,iq,,,14,ob_dir,ob_dir + ob_indir,relative pronouns
,Timer frame,html.Frame,2_21_1,,,,,,,5256.399999988091,343273.59999999404,343276.996,343293.3,348549.6999999881,348549.90000000596,2025-02-01T11:28:39.537Z,348558.7,cR4aC90T73,incremental,jednostavno-test,679df971131ae225e46b4282,participant,hcpib7hgm6m3tmkg,,,,U susjednom stanu živio je čovjek kojeg sam pitao koliko mu auto troši benzina.,Pitao sam vlasnika kamioneta koliko benzina troši njegov auto.,iq,,,14,ob_dir,ob_dir + ob_indir,relative pronouns
,inter-stimulus,canvas.Screen,2_21_2,,,,,,response,888.4999999880674,348550,348542.264,348558.7,349447.1999999881,349448.6999999881,2025-02-01T11:28:40.436Z,349458.3,cR4aC90T73,incremental,jednostavno-test,679df971131ae225e46b4282,participant,hcpib7hgm6m3tmkg,,,mousedown,U susjednom stanu živio je čovjek kojeg sam pitao koliko mu auto troši benzina.,Pitao sam vlasnika kamioneta koliko benzina troši njegov auto.,iq,,,14,ob_dir,ob_dir + ob_indir,relative pronouns
,Sequence,flow.Sequence,2_21,,,,,,completion,8669.89999998809,340764.5,340760.906,340777.3,349447.1999999881,349449,2025-02-01T11:28:40.436Z,349458.3,cR4aC90T73,incremental,jednostavno-test,679df971131ae225e46b4282,participant,hcpib7hgm6m3tmkg,,,,U susjednom stanu živio je čovjek kojeg sam pitao koliko mu auto troši benzina.,Pitao sam vlasnika kamioneta koliko benzina troši njegov auto.,iq,,,14,ob_dir,ob_dir + ob_indir,relative pronouns
,context,canvas.Screen,2_22_0_0,,,,,,response,3611.3999999880907,349449.40000000596,349442.232,349458.3,353069.6999999881,353070.1999999881,2025-02-01T11:28:44.057Z,353090.8,cR4aC90T73,incremental,jednostavno-test,679df971131ae225e46b4282,participant,hcpib7hgm6m3tmkg,,,click,"Kako, Perići znaju, da se Petar tog dana vozio kući?",Perići znaju da se Petar tog dana vrlo brzo vozio kući.,fac,,,38,ad_mode,ob + ad_mode,interrogative pronouns
,Timer frame,html.Frame,2_22_0,,,,,,,3611.8999999880907,349449.09999999404,349442.232,349458.3,353070.1999999881,353070.2999999821,2025-02-01T11:28:44.057Z,353090.8,cR4aC90T73,incremental,jednostavno-test,679df971131ae225e46b4282,participant,hcpib7hgm6m3tmkg,,,,"Kako, Perići znaju, da se Petar tog dana vozio kući?",Perići znaju da se Petar tog dana vrlo brzo vozio kući.,fac,,,38,ad_mode,ob + ad_mode,interrogative pronouns
,stimulus,canvas.Screen,2_22_1_0,,,,,,response,5922.700000000012,353070.40000000596,353074.2,353090.8,359013.5,359014.7999999821,2025-02-01T11:28:50.002Z,359022.7,cR4aC90T73,incremental,jednostavno-test,679df971131ae225e46b4282,participant,hcpib7hgm6m3tmkg,,2,click @2,"Kako, Perići znaju, da se Petar tog dana vozio kući?",Perići znaju da se Petar tog dana vrlo brzo vozio kući.,fac,,,38,ad_mode,ob + ad_mode,interrogative pronouns
,Timer frame,html.Frame,2_22_1,,,,,,,5924.100000005972,353070.40000000596,353074.2,353090.8,359014.90000000596,359015.1999999881,2025-02-01T11:28:50.002Z,359022.7,cR4aC90T73,incremental,jednostavno-test,679df971131ae225e46b4282,participant,hcpib7hgm6m3tmkg,,,,"Kako, Perići znaju, da se Petar tog dana vozio kući?",Perići znaju da se Petar tog dana vrlo brzo vozio kući.,fac,,,38,ad_mode,ob + ad_mode,interrogative pronouns
,inter-stimulus,canvas.Screen,2_22_2,,,,,,response,895.3999999940279,359015.5,359007.566,359022.7,359918.09999999404,359919.6999999881,2025-02-01T11:28:50.907Z,359922.5,cR4aC90T73,incremental,jednostavno-test,679df971131ae225e46b4282,participant,hcpib7hgm6m3tmkg,,,mousedown,"Kako, Perići znaju, da se Petar tog dana vozio kući?",Perići znaju da se Petar tog dana vrlo brzo vozio kući.,fac,,,38,ad_mode,ob + ad_mode,interrogative pronouns
,Sequence,flow.Sequence,2_22,,,,,,completion,10459.799999994051,349449.09999999404,349442.232,349458.3,359918.09999999404,359920,2025-02-01T11:28:50.907Z,359922.5,cR4aC90T73,incremental,jednostavno-test,679df971131ae225e46b4282,participant,hcpib7hgm6m3tmkg,,,,"Kako, Perići znaju, da se Petar tog dana vozio kući?",Perići znaju da se Petar tog dana vrlo brzo vozio kući.,fac,,,38,ad_mode,ob + ad_mode,interrogative pronouns
,context,canvas.Screen,2_23_0_0,,,,,,response,3208.0999999940395,359920.40000000596,359906.332,359922.5,363130.59999999404,363131.7999999821,2025-02-01T11:28:54.119Z,363155,cR4aC90T73,incremental,jednostavno-test,679df971131ae225e46b4282,participant,hcpib7hgm6m3tmkg,,,click,Kada Slavko ide u SAD na work and travel program?,Na ljeto Slavko ide u USA na work and travel program.,iq,0,0,9,ad,ad + ad,interrogative pronouns
,Timer frame,html.Frame,2_23_0,,,,,,,3209.5,359920.09999999404,359906.332,359922.5,363132,363132.09999999404,2025-02-01T11:28:54.119Z,363155,cR4aC90T73,incremental,jednostavno-test,679df971131ae225e46b4282,participant,hcpib7hgm6m3tmkg,,,,Kada Slavko ide u SAD na work and travel program?,Na ljeto Slavko ide u USA na work and travel program.,iq,0,0,9,ad,ad + ad,interrogative pronouns
,stimulus,canvas.Screen,2_23_1_0,,,,,,response,3754.7999999821186,363132.5,363138.692,363155,366909.7999999821,366911.2999999821,2025-02-01T11:28:57.898Z,366920.8,cR4aC90T73,incremental,jednostavno-test,679df971131ae225e46b4282,participant,hcpib7hgm6m3tmkg,,7,click @7,Kada Slavko ide u SAD na work and travel program?,Na ljeto Slavko ide u USA na work and travel program.,iq,0,0,9,ad,ad + ad,interrogative pronouns
,Timer frame,html.Frame,2_23_1,,,,,,,3756.5999999940395,363132.1999999881,363138.692,363155,366911.59999999404,366911.6999999881,2025-02-01T11:28:57.899Z,366920.8,cR4aC90T73,incremental,jednostavno-test,679df971131ae225e46b4282,participant,hcpib7hgm6m3tmkg,,,,Kada Slavko ide u SAD na work and travel program?,Na ljeto Slavko ide u USA na work and travel program.,iq,0,0,9,ad,ad + ad,interrogative pronouns
,inter-stimulus,canvas.Screen,2_23_2,,,,,,response,2181.8999999880907,366911.7999999821,366904.46,366920.8,369102.6999999881,369103.5,2025-02-01T11:29:00.091Z,369137.3,cR4aC90T73,incremental,jednostavno-test,679df971131ae225e46b4282,participant,hcpib7hgm6m3tmkg,,,mousedown,Kada Slavko ide u SAD na work and travel program?,Na ljeto Slavko ide u USA na work and travel program.,iq,0,0,9,ad,ad + ad,interrogative pronouns
,Sequence,flow.Sequence,2_23,,,,,,completion,9180.199999988079,359920.09999999404,359906.332,359922.5,369102.6999999881,369103.59999999404,2025-02-01T11:29:00.091Z,369137.3,cR4aC90T73,incremental,jednostavno-test,679df971131ae225e46b4282,participant,hcpib7hgm6m3tmkg,,,,Kada Slavko ide u SAD na work and travel program?,Na ljeto Slavko ide u USA na work and travel program.,iq,0,0,9,ad,ad + ad,interrogative pronouns
,context,canvas.Screen,2_24_0_0,,,,,,response,2181.799999994051,369103.7999999821,369120.2,369137.3,371319.09999999404,371319.7999999821,2025-02-01T11:29:02.307Z,371336.6,cR4aC90T73,incremental,jednostavno-test,679df971131ae225e46b4282,participant,hcpib7hgm6m3tmkg,,,click,Kako je Ivan požalio što se ponašao na zabavi?,Ivan je požalio što se ponašao drsko na zabavi.,fac,0,0,32,ad_mode,ob_dir + ad_mode + ad_measure,interrogative pronouns
,Timer frame,html.Frame,2_24_0,,,,,,,2182.4999999821302,369103.6999999881,369120.2,369137.3,371319.7999999821,371319.90000000596,2025-02-01T11:29:02.307Z,371336.6,cR4aC90T73,incremental,jednostavno-test,679df971131ae225e46b4282,participant,hcpib7hgm6m3tmkg,,,,Kako je Ivan požalio što se ponašao na zabavi?,Ivan je požalio što se ponašao drsko na zabavi.,fac,0,0,32,ad_mode,ob_dir + ad_mode + ad_measure,interrogative pronouns
,stimulus,canvas.Screen,2_24_1_0,,,,,,response,4056.5999999881024,371320,371320.284,371336.6,375393.1999999881,375394.59999999404,2025-02-01T11:29:06.382Z,375402.556,cR4aC90T73,incremental,jednostavno-test,679df971131ae225e46b4282,participant,hcpib7hgm6m3tmkg,,1,click @1,Kako je Ivan požalio što se ponašao na zabavi?,Ivan je požalio što se ponašao drsko na zabavi.,fac,0,0,32,ad_mode,ob_dir + ad_mode + ad_measure,interrogative pronouns
,Timer frame,html.Frame,2_24_1,,,,,,,4058.0999999881024,371319.90000000596,371320.284,371336.6,375394.6999999881,375394.90000000596,2025-02-01T11:29:06.382Z,375402.556,cR4aC90T73,incremental,jednostavno-test,679df971131ae225e46b4282,participant,hcpib7hgm6m3tmkg,,,,Kako je Ivan požalio što se ponašao na zabavi?,Ivan je požalio što se ponašao drsko na zabavi.,fac,0,0,32,ad_mode,ob_dir + ad_mode + ad_measure,interrogative pronouns
,inter-stimulus,canvas.Screen,2_24_2,,,,,,response,857.5439999940572,375395,375402.556,375402.556,376260.09999999404,376261.7999999821,2025-02-01T11:29:07.249Z,376268.6,cR4aC90T73,incremental,jednostavno-test,679df971131ae225e46b4282,participant,hcpib7hgm6m3tmkg,,,mousedown,Kako je Ivan požalio što se ponašao na zabavi?,Ivan je požalio što se ponašao drsko na zabavi.,fac,0,0,32,ad_mode,ob_dir + ad_mode + ad_measure,interrogative pronouns
,Sequence,flow.Sequence,2_24,,,,,,completion,7122.799999994051,369103.59999999404,369120.2,369137.3,376260.09999999404,376262.1999999881,2025-02-01T11:29:07.249Z,376268.6,cR4aC90T73,incremental,jednostavno-test,679df971131ae225e46b4282,participant,hcpib7hgm6m3tmkg,,,,Kako je Ivan požalio što se ponašao na zabavi?,Ivan je požalio što se ponašao drsko na zabavi.,fac,0,0,32,ad_mode,ob_dir + ad_mode + ad_measure,interrogative pronouns
,context,canvas.Screen,2_25_0_0,,,,,,response,4965.699999982142,376262.6999999881,376252.334,376268.6,381234.2999999821,381235.5,2025-02-01T11:29:12.222Z,381250.9,cR4aC90T73,incremental,jednostavno-test,679df971131ae225e46b4282,participant,hcpib7hgm6m3tmkg,,,click,Sutra Stepan će naučiti toliko pjesama koliko nije stignuo naučiti jučer za sat književnosti.,Stepan nije stignuo naučiti 3 pjesme za sat književnosti.,neg,,,30,ad_measure,ad_mode + ad_measure,relative pronouns
,Timer frame,html.Frame,2_25_0,,,,,,,4967.099999988102,376262.2999999821,376252.334,376268.6,381235.6999999881,381235.7999999821,2025-02-01T11:29:12.223Z,381250.9,cR4aC90T73,incremental,jednostavno-test,679df971131ae225e46b4282,participant,hcpib7hgm6m3tmkg,,,,Sutra Stepan će naučiti toliko pjesama koliko nije stignuo naučiti jučer za sat književnosti.,Stepan nije stignuo naučiti 3 pjesme za sat književnosti.,neg,,,30,ad_measure,ad_mode + ad_measure,relative pronouns
,stimulus,canvas.Screen,2_25_1_0,,,,,,response,3759.500000005937,381236.1999999881,381234.542,381250.9,385010.40000000596,385011.6999999881,2025-02-01T11:29:15.999Z,385016.4,cR4aC90T73,incremental,jednostavno-test,679df971131ae225e46b4282,participant,hcpib7hgm6m3tmkg,,1,click @1,Sutra Stepan će naučiti toliko pjesama koliko nije stignuo naučiti jučer za sat književnosti.,Stepan nije stignuo naučiti 3 pjesme za sat književnosti.,neg,,,30,ad_measure,ad_mode + ad_measure,relative pronouns
,Timer frame,html.Frame,2_25_1,,,,,,,3761.000000005937,381235.90000000596,381234.542,381250.9,385011.90000000596,385012,2025-02-01T11:29:15.999Z,385016.4,cR4aC90T73,incremental,jednostavno-test,679df971131ae225e46b4282,participant,hcpib7hgm6m3tmkg,,,,Sutra Stepan će naučiti toliko pjesama koliko nije stignuo naučiti jučer za sat književnosti.,Stepan nije stignuo naučiti 3 pjesme za sat književnosti.,neg,,,30,ad_measure,ad_mode + ad_measure,relative pronouns
,inter-stimulus,canvas.Screen,2_25_2,,,,,,response,2080.299999988056,385012.1999999881,385000.332,385016.4,387096.6999999881,387098.6999999881,2025-02-01T11:29:18.086Z,387116.1,cR4aC90T73,incremental,jednostavno-test,679df971131ae225e46b4282,participant,hcpib7hgm6m3tmkg,,,mousedown,Sutra Stepan će naučiti toliko pjesama koliko nije stignuo naučiti jučer za sat književnosti.,Stepan nije stignuo naučiti 3 pjesme za sat književnosti.,neg,,,30,ad_measure,ad_mode + ad_measure,relative pronouns
,Sequence,flow.Sequence,2_25,,,,,,completion,10828.099999988102,376262.2999999821,376252.334,376268.6,387096.6999999881,387099.09999999404,2025-02-01T11:29:18.086Z,387116.1,cR4aC90T73,incremental,jednostavno-test,679df971131ae225e46b4282,participant,hcpib7hgm6m3tmkg,,,,Sutra Stepan će naučiti toliko pjesama koliko nije stignuo naučiti jučer za sat književnosti.,Stepan nije stignuo naučiti 3 pjesme za sat književnosti.,neg,,,30,ad_measure,ad_mode + ad_measure,relative pronouns
,context,canvas.Screen,2_26_0_0,,,,,,response,1961.699999982142,387099.5,387099.784,387116.1,389077.7999999821,389078.6999999881,2025-02-01T11:29:20.066Z,389082,cR4aC90T73,incremental,jednostavno-test,679df971131ae225e46b4282,participant,hcpib7hgm6m3tmkg,,,click,Majka je primijetila da se Slobodan vratio kući.,Slobodan se vratio kući.,gf,0,0,44,filler,filler,filler
,Timer frame,html.Frame,2_26_0,,,,,,,1962.8000000059837,387099.2999999821,387099.784,387116.1,389078.90000000596,389078.90000000596,2025-02-01T11:29:20.066Z,389082,cR4aC90T73,incremental,jednostavno-test,679df971131ae225e46b4282,participant,hcpib7hgm6m3tmkg,,,,Majka je primijetila da se Slobodan vratio kući.,Slobodan se vratio kući.,gf,0,0,44,filler,filler,filler
,stimulus,canvas.Screen,2_26_1_0,,,,,,response,4796.4000000059605,389079.2999999821,389065.816,389082,393878.40000000596,393879,2025-02-01T11:29:24.866Z,393880.8,cR4aC90T73,incremental,jednostavno-test,679df971131ae225e46b4282,participant,hcpib7hgm6m3tmkg,,7,click @7,Majka je primijetila da se Slobodan vratio kući.,Slobodan se vratio kući.,gf,0,0,44,filler,filler,filler
,Timer frame,html.Frame,2_26_1,,,,,,,4797,389079.09999999404,389065.816,389082,393879,393879.09999999404,2025-02-01T11:29:24.866Z,393880.8,cR4aC90T73,incremental,jednostavno-test,679df971131ae225e46b4282,participant,hcpib7hgm6m3tmkg,,,,Majka je primijetila da se Slobodan vratio kući.,Slobodan se vratio kući.,gf,0,0,44,filler,filler,filler
,inter-stimulus,canvas.Screen,2_26_2,,,,,,response,1354.7000000000116,393879.09999999404,393864.264,393880.8,395235.5,395236.2999999821,2025-02-01T11:29:26.223Z,395247.1,cR4aC90T73,incremental,jednostavno-test,679df971131ae225e46b4282,participant,hcpib7hgm6m3tmkg,,,mousedown,Majka je primijetila da se Slobodan vratio kući.,Slobodan se vratio kući.,gf,0,0,44,filler,filler,filler
,Sequence,flow.Sequence,2_26,,,,,,completion,8119.400000000023,387099.1999999881,387099.784,387116.1,395235.5,395236.2999999821,2025-02-01T11:29:26.223Z,395247.1,cR4aC90T73,incremental,jednostavno-test,679df971131ae225e46b4282,participant,hcpib7hgm6m3tmkg,,,,Majka je primijetila da se Slobodan vratio kući.,Slobodan se vratio kući.,gf,0,0,44,filler,filler,filler
,context,canvas.Screen,2_27_0_0,,,,,,response,2863.5999999881024,395236.5,395230.956,395247.1,398110.6999999881,398111.90000000596,2025-02-01T11:29:29.099Z,398130.4,cR4aC90T73,incremental,jednostavno-test,679df971131ae225e46b4282,participant,hcpib7hgm6m3tmkg,,,click,"Što, Klara misli, da je Petar kupio na tržnici?",Klara misli da je Petar kupio sat na tržnici.,fac,,,39,ob,ob + ad_mode,interrogative pronouns
,Timer frame,html.Frame,2_27_0,,,,,,,2864.999999994063,395236.40000000596,395230.956,395247.1,398112.09999999404,398112.2999999821,2025-02-01T11:29:29.099Z,398130.4,cR4aC90T73,incremental,jednostavno-test,679df971131ae225e46b4282,participant,hcpib7hgm6m3tmkg,,,,"Što, Klara misli, da je Petar kupio na tržnici?",Klara misli da je Petar kupio sat na tržnici.,fac,,,39,ob,ob + ad_mode,interrogative pronouns
,stimulus,canvas.Screen,2_27_1_0,,,,,,response,4781.000000005937,398112.59999999404,398113.66,398130.4,402911.40000000596,402912.7999999821,2025-02-01T11:29:33.900Z,402928.9,cR4aC90T73,incremental,jednostavno-test,679df971131ae225e46b4282,participant,hcpib7hgm6m3tmkg,,3,click @3,"Što, Klara misli, da je Petar kupio na tržnici?",Klara misli da je Petar kupio sat na tržnici.,fac,,,39,ob,ob + ad_mode,interrogative pronouns
,Timer frame,html.Frame,2_27_1,,,,,,,4782.699999994016,398112.40000000596,398113.66,398130.4,402913.09999999404,402913.2999999821,2025-02-01T11:29:33.900Z,402928.9,cR4aC90T73,incremental,jednostavno-test,679df971131ae225e46b4282,participant,hcpib7hgm6m3tmkg,,,,"Što, Klara misli, da je Petar kupio na tržnici?",Klara misli da je Petar kupio sat na tržnici.,fac,,,39,ob,ob + ad_mode,interrogative pronouns
,inter-stimulus,canvas.Screen,2_27_2,,,,,,response,708.1999999940163,402913.5,402912.664,402928.9,403637.09999999404,403637.7999999821,2025-02-01T11:29:34.625Z,403645.1,cR4aC90T73,incremental,jednostavno-test,679df971131ae225e46b4282,participant,hcpib7hgm6m3tmkg,,,mousedown,"Što, Klara misli, da je Petar kupio na tržnici?",Klara misli da je Petar kupio sat na tržnici.,fac,,,39,ob,ob + ad_mode,interrogative pronouns
,Sequence,flow.Sequence,2_27,,,,,,completion,8389.999999994063,395236.40000000596,395230.956,395247.1,403637.09999999404,403638,2025-02-01T11:29:34.625Z,403645.1,cR4aC90T73,incremental,jednostavno-test,679df971131ae225e46b4282,participant,hcpib7hgm6m3tmkg,,,,"Što, Klara misli, da je Petar kupio na tržnici?",Klara misli da je Petar kupio sat na tržnici.,fac,,,39,ob,ob + ad_mode,interrogative pronouns
,context,canvas.Screen,2_28_0_0,,,,,,response,3257.0999999881024,403638.09999999404,403629,403645.1,406902.1999999881,406903.5,2025-02-01T11:29:37.890Z,406911,cR4aC90T73,incremental,jednostavno-test,679df971131ae225e46b4282,participant,hcpib7hgm6m3tmkg,,,click,Kogo je Ivan požalio što je pozvao na zabavu?,Ivan je požalio što je šefa pozvao na zabavu.,fac,,,31,ob_dir,ob_dir + ad_mode + ad_measure,interrogative pronouns
,Timer frame,html.Frame,2_28_0,,,,,,,3258.5999999881024,403638,403629,403645.1,406903.6999999881,406903.90000000596,2025-02-01T11:29:37.891Z,406911,cR4aC90T73,incremental,jednostavno-test,679df971131ae225e46b4282,participant,hcpib7hgm6m3tmkg,,,,Kogo je Ivan požalio što je pozvao na zabavu?,Ivan je požalio što je šefa pozvao na zabavu.,fac,,,31,ob_dir,ob_dir + ad_mode + ad_measure,interrogative pronouns
,stimulus,canvas.Screen,2_28_1_0,,,,,,response,6098.4000000059605,406904.1999999881,406894.9,406911,413009.40000000596,413010.90000000596,2025-02-01T11:29:43.998Z,413026.3,cR4aC90T73,incremental,jednostavno-test,679df971131ae225e46b4282,participant,hcpib7hgm6m3tmkg,,5,click @5,Kogo je Ivan požalio što je pozvao na zabavu?,Ivan je požalio što je šefa pozvao na zabavu.,fac,,,31,ob_dir,ob_dir + ad_mode + ad_measure,interrogative pronouns
,Timer frame,html.Frame,2_28_1,,,,,,,6100.0999999940395,406903.90000000596,406894.9,406911,413011.09999999404,413011.1999999881,2025-02-01T11:29:43.998Z,413026.3,cR4aC90T73,incremental,jednostavno-test,679df971131ae225e46b4282,participant,hcpib7hgm6m3tmkg,,,,Kogo je Ivan požalio što je pozvao na zabavu?,Ivan je požalio što je šefa pozvao na zabavu.,fac,,,31,ob_dir,ob_dir + ad_mode + ad_measure,interrogative pronouns
,inter-stimulus,canvas.Screen,2_28_2,,,,,,response,774.7999999940512,413011.40000000596,413009.962,413026.3,413801.09999999404,413802.6999999881,2025-02-01T11:29:44.790Z,413809.4,cR4aC90T73,incremental,jednostavno-test,679df971131ae225e46b4282,participant,hcpib7hgm6m3tmkg,,,mousedown,Kogo je Ivan požalio što je pozvao na zabavu?,Ivan je požalio što je šefa pozvao na zabavu.,fac,,,31,ob_dir,ob_dir + ad_mode + ad_measure,interrogative pronouns
,Sequence,flow.Sequence,2_28,,,,,,completion,10155.999999994063,403638,403629,403645.1,413801.09999999404,413803.1999999881,2025-02-01T11:29:44.790Z,413809.4,cR4aC90T73,incremental,jednostavno-test,679df971131ae225e46b4282,participant,hcpib7hgm6m3tmkg,,,,Kogo je Ivan požalio što je pozvao na zabavu?,Ivan je požalio što je šefa pozvao na zabavu.,fac,,,31,ob_dir,ob_dir + ad_mode + ad_measure,interrogative pronouns
,context,canvas.Screen,2_29_0_0,,,,,,response,2414.3999999820953,413803.7999999821,413792.936,413809.4,416223.7999999821,416225,2025-02-01T11:29:47.212Z,416242.2,cR4aC90T73,incremental,jednostavno-test,679df971131ae225e46b4282,participant,hcpib7hgm6m3tmkg,,,click,Gdje je djeca?,Moj mlađi brat i sestra su bili u dvorištu.,nf,,,55,filler,filler,filler
,Timer frame,html.Frame,2_29_0,,,,,,,2415.8999999820953,413803.40000000596,413792.936,413809.4,416225.2999999821,416225.40000000596,2025-02-01T11:29:47.212Z,416242.2,cR4aC90T73,incremental,jednostavno-test,679df971131ae225e46b4282,participant,hcpib7hgm6m3tmkg,,,,Gdje je djeca?,Moj mlađi brat i sestra su bili u dvorištu.,nf,,,55,filler,filler,filler
,stimulus,canvas.Screen,2_29_1_0,,,,,,response,4077.899999994028,416225.90000000596,416225.758,416242.2,420320.09999999404,420321.2999999821,2025-02-01T11:29:51.308Z,420324.4,cR4aC90T73,incremental,jednostavno-test,679df971131ae225e46b4282,participant,hcpib7hgm6m3tmkg,,6,click @6,Gdje je djeca?,Moj mlađi brat i sestra su bili u dvorištu.,nf,,,55,filler,filler,filler
,Timer frame,html.Frame,2_29_1,,,,,,,4079.399999994028,416225.59999999404,416225.758,416242.2,420321.59999999404,420321.6999999881,2025-02-01T11:29:51.309Z,420324.4,cR4aC90T73,incremental,jednostavno-test,679df971131ae225e46b4282,participant,hcpib7hgm6m3tmkg,,,,Gdje je djeca?,Moj mlađi brat i sestra su bili u dvorištu.,nf,,,55,filler,filler,filler
,inter-stimulus,canvas.Screen,2_29_2,,,,,,response,786.3999999820953,420321.90000000596,420308.164,420324.4,421110.7999999821,421111.6999999881,2025-02-01T11:29:52.099Z,421124.1,cR4aC90T73,incremental,jednostavno-test,679df971131ae225e46b4282,participant,hcpib7hgm6m3tmkg,,,mousedown,Gdje je djeca?,Moj mlađi brat i sestra su bili u dvorištu.,nf,,,55,filler,filler,filler
,Sequence,flow.Sequence,2_29,,,,,,completion,7301.399999982095,413803.40000000596,413792.936,413809.4,421110.7999999821,421111.7999999821,2025-02-01T11:29:52.099Z,421124.1,cR4aC90T73,incremental,jednostavno-test,679df971131ae225e46b4282,participant,hcpib7hgm6m3tmkg,,,,Gdje je djeca?,Moj mlađi brat i sestra su bili u dvorištu.,nf,,,55,filler,filler,filler
,context,canvas.Screen,2_30_0_0,,,,,,response,3970.0999999881024,421112.09999999404,421107.736,421124.1,425094.1999999881,425095.40000000596,2025-02-01T11:29:56.082Z,425106.6,cR4aC90T73,incremental,jednostavno-test,679df971131ae225e46b4282,participant,hcpib7hgm6m3tmkg,,,click,Pozvali smo ovog čovjeka o kojem smo pitali gdje radi.,Pitali smo gdje radi Grga.,iq,,,12,sub,sub + ad,relative pronouns
,Timer frame,html.Frame,2_30_0,,,,,,,3971.499999994063,421111.90000000596,421107.736,421124.1,425095.59999999404,425095.7999999821,2025-02-01T11:29:56.083Z,425106.6,cR4aC90T73,incremental,jednostavno-test,679df971131ae225e46b4282,participant,hcpib7hgm6m3tmkg,,,,Pozvali smo ovog čovjeka o kojem smo pitali gdje radi.,Pitali smo gdje radi Grga.,iq,,,12,sub,sub + ad,relative pronouns
,stimulus,canvas.Screen,2_30_1_0,,,,,,response,5425.900000000023,425096.1999999881,425090.194,425106.6,430532.5,430533.6999999881,2025-02-01T11:30:01.521Z,430538.5,cR4aC90T73,incremental,jednostavno-test,679df971131ae225e46b4282,participant,hcpib7hgm6m3tmkg,,1,click @1,Pozvali smo ovog čovjeka o kojem smo pitali gdje radi.,Pitali smo gdje radi Grga.,iq,,,12,sub,sub + ad,relative pronouns
,Timer frame,html.Frame,2_30_1,,,,,,,5427.300000005984,425096,425090.194,425106.6,430533.90000000596,430534.09999999404,2025-02-01T11:30:01.521Z,430538.5,cR4aC90T73,incremental,jednostavno-test,679df971131ae225e46b4282,participant,hcpib7hgm6m3tmkg,,,,Pozvali smo ovog čovjeka o kojem smo pitali gdje radi.,Pitali smo gdje radi Grga.,iq,,,12,sub,sub + ad,relative pronouns
,inter-stimulus,canvas.Screen,2_30_2,,,,,,response,956.4000000059605,430534.1999999881,430522.392,430538.5,431494.90000000596,431495.90000000596,2025-02-01T11:30:02.483Z,431505.1,cR4aC90T73,incremental,jednostavno-test,679df971131ae225e46b4282,participant,hcpib7hgm6m3tmkg,,,mousedown,Pozvali smo ovog čovjeka o kojem smo pitali gdje radi.,Pitali smo gdje radi Grga.,iq,,,12,sub,sub + ad,relative pronouns
,Sequence,flow.Sequence,2_30,,,,,,completion,10370.800000005984,421111.90000000596,421107.736,421124.1,431494.90000000596,431496.09999999404,2025-02-01T11:30:02.483Z,431505.1,cR4aC90T73,incremental,jednostavno-test,679df971131ae225e46b4282,participant,hcpib7hgm6m3tmkg,,,,Pozvali smo ovog čovjeka o kojem smo pitali gdje radi.,Pitali smo gdje radi Grga.,iq,,,12,sub,sub + ad,relative pronouns
,context,canvas.Screen,2_31_0_0,,,,,,response,2088.3000000059837,431496.2999999821,431488.7,431505.1,433593.40000000596,433594.5,2025-02-01T11:30:04.582Z,433604.5,cR4aC90T73,incremental,jednostavno-test,679df971131ae225e46b4282,participant,hcpib7hgm6m3tmkg,,,click,Došao je dan kada Martin ne ide na posao.,Martin sutra ne dolazi na posao.,neg,,,27,ad_time,ad_time + ad_place,relative pronouns
,Timer frame,html.Frame,2_31_0,,,,,,,2089.5999999881024,431496.09999999404,431488.7,431505.1,433594.6999999881,433594.90000000596,2025-02-01T11:30:04.582Z,433604.5,cR4aC90T73,incremental,jednostavno-test,679df971131ae225e46b4282,participant,hcpib7hgm6m3tmkg,,,,Došao je dan kada Martin ne ide na posao.,Martin sutra ne dolazi na posao.,neg,,,27,ad_time,ad_time + ad_place,relative pronouns
,stimulus,canvas.Screen,2_31_1_0,,,,,,response,4728.199999988079,433595.2999999821,433588.348,433604.5,438332.6999999881,438334,2025-02-01T11:30:09.321Z,438353.6,cR4aC90T73,incremental,jednostavno-test,679df971131ae225e46b4282,participant,hcpib7hgm6m3tmkg,,7,click @7,Došao je dan kada Martin ne ide na posao.,Martin sutra ne dolazi na posao.,neg,,,27,ad_time,ad_time + ad_place,relative pronouns
,Timer frame,html.Frame,2_31_1,,,,,,,4729.799999982119,433594.90000000596,433588.348,433604.5,438334.2999999821,438334.2999999821,2025-02-01T11:30:09.321Z,438353.6,cR4aC90T73,incremental,jednostavno-test,679df971131ae225e46b4282,participant,hcpib7hgm6m3tmkg,,,,Došao je dan kada Martin ne ide na posao.,Martin sutra ne dolazi na posao.,neg,,,27,ad_time,ad_time + ad_place,relative pronouns
,inter-stimulus,canvas.Screen,2_31_2,,,,,,response,1264.699999982142,438334.5,438337.138,438353.6,439618.2999999821,439620,2025-02-01T11:30:10.607Z,439636.7,cR4aC90T73,incremental,jednostavno-test,679df971131ae225e46b4282,participant,hcpib7hgm6m3tmkg,,,mousedown,Došao je dan kada Martin ne ide na posao.,Martin sutra ne dolazi na posao.,neg,,,27,ad_time,ad_time + ad_place,relative pronouns
,Sequence,flow.Sequence,2_31,,,,,,completion,8113.199999982142,431496.09999999404,431488.7,431505.1,439618.2999999821,439620.2999999821,2025-02-01T11:30:10.607Z,439636.7,cR4aC90T73,incremental,jednostavno-test,679df971131ae225e46b4282,participant,hcpib7hgm6m3tmkg,,,,Došao je dan kada Martin ne ide na posao.,Martin sutra ne dolazi na posao.,neg,,,27,ad_time,ad_time + ad_place,relative pronouns
,context,canvas.Screen,2_32_0_0,,,,,,response,4389.799999999988,439620.6999999881,439620.216,439636.7,444026.5,444027.6999999881,2025-02-01T11:30:15.015Z,444052.2,cR4aC90T73,incremental,jednostavno-test,679df971131ae225e46b4282,participant,hcpib7hgm6m3tmkg,,,click,"Što, zanima ih, tko će kupiti za vjenčani dar?",Zanima ih tko će kupiti posuđe za vjenčani dar.,iq,0,0,1,ob,sub + ob,interrogative pronouns
,Timer frame,html.Frame,2_32_0,,,,,,,4391.200000005949,439620.5,439620.216,439636.7,444027.90000000596,444028.09999999404,2025-02-01T11:30:15.015Z,444052.2,cR4aC90T73,incremental,jednostavno-test,679df971131ae225e46b4282,participant,hcpib7hgm6m3tmkg,,,,"Što, zanima ih, tko će kupiti za vjenčani dar?",Zanima ih tko će kupiti posuđe za vjenčani dar.,iq,0,0,1,ob,sub + ob,interrogative pronouns
,stimulus,canvas.Screen,2_32_1_0,,,,,,response,3746.200000005949,444028.59999999404,444035.796,444052.2,447798.40000000596,447799.59999999404,2025-02-01T11:30:18.787Z,447817.6,cR4aC90T73,incremental,jednostavno-test,679df971131ae225e46b4282,participant,hcpib7hgm6m3tmkg,,1,click @1,"Što, zanima ih, tko će kupiti za vjenčani dar?",Zanima ih tko će kupiti posuđe za vjenčani dar.,iq,0,0,1,ob,sub + ob,interrogative pronouns
,Timer frame,html.Frame,2_32_1,,,,,,,3747.700000005949,444028.1999999881,444035.796,444052.2,447799.90000000596,447800,2025-02-01T11:30:18.787Z,447817.6,cR4aC90T73,incremental,jednostavno-test,679df971131ae225e46b4282,participant,hcpib7hgm6m3tmkg,,,,"Što, zanima ih, tko će kupiti za vjenčani dar?",Zanima ih tko će kupiti posuđe za vjenčani dar.,iq,0,0,1,ob,sub + ob,interrogative pronouns
,inter-stimulus,canvas.Screen,2_32_2,,,,,,response,1010.3000000059837,447800.09999999404,447801.498,447817.6,448827.90000000596,448829.7999999821,2025-02-01T11:30:19.817Z,448834.2,cR4aC90T73,incremental,jednostavno-test,679df971131ae225e46b4282,participant,hcpib7hgm6m3tmkg,,,mousedown,"Što, zanima ih, tko će kupiti za vjenčani dar?",Zanima ih tko će kupiti posuđe za vjenčani dar.,iq,0,0,1,ob,sub + ob,interrogative pronouns
,Sequence,flow.Sequence,2_32,,,,,,completion,9191.200000005949,439620.40000000596,439620.216,439636.7,448827.90000000596,448830.09999999404,2025-02-01T11:30:19.817Z,448834.2,cR4aC90T73,incremental,jednostavno-test,679df971131ae225e46b4282,participant,hcpib7hgm6m3tmkg,,,,"Što, zanima ih, tko će kupiti za vjenčani dar?",Zanima ih tko će kupiti posuđe za vjenčani dar.,iq,0,0,1,ob,sub + ob,interrogative pronouns
,context,canvas.Screen,2_33_0_0,,,,,,response,6960.399999994028,448830.7999999821,448817.994,448834.2,455794.59999999404,455795.7999999821,2025-02-01T11:30:26.783Z,455815.8,cR4aC90T73,incremental,jednostavno-test,679df971131ae225e46b4282,participant,hcpib7hgm6m3tmkg,,,click,"Kome, učitelj je pitao, što treba ponovno objasniti?",Učitelj je pitao što treba učenicima ponovno objasniti..,iq,0,36,4,ob_dir,ob_dir + ob_indir,interrogative pronouns
,Timer frame,html.Frame,2_33_0,,,,,,,6961.799999999988,448830.40000000596,448817.994,448834.2,455796,455796.1999999881,2025-02-01T11:30:26.783Z,455815.8,cR4aC90T73,incremental,jednostavno-test,679df971131ae225e46b4282,participant,hcpib7hgm6m3tmkg,,,,"Kome, učitelj je pitao, što treba ponovno objasniti?",Učitelj je pitao što treba učenicima ponovno objasniti..,iq,0,36,4,ob_dir,ob_dir + ob_indir,interrogative pronouns
,stimulus,canvas.Screen,2_33_1_0,,,,,,response,7050.200000000012,455796.6999999881,455799.686,455815.8,462866,462867.2999999821,2025-02-01T11:30:33.854Z,462880.9,cR4aC90T73,incremental,jednostavno-test,679df971131ae225e46b4282,participant,hcpib7hgm6m3tmkg,,3,click @3,"Kome, učitelj je pitao, što treba ponovno objasniti?",Učitelj je pitao što treba učenicima ponovno objasniti..,iq,0,36,4,ob_dir,ob_dir + ob_indir,interrogative pronouns
,Timer frame,html.Frame,2_33_1,,,,,,,7051.799999994051,455796.2999999821,455799.686,455815.8,462867.59999999404,462867.6999999881,2025-02-01T11:30:33.855Z,462880.9,cR4aC90T73,incremental,jednostavno-test,679df971131ae225e46b4282,participant,hcpib7hgm6m3tmkg,,,,"Kome, učitelj je pitao, što treba ponovno objasniti?",Učitelj je pitao što treba učenicima ponovno objasniti..,iq,0,36,4,ob_dir,ob_dir + ob_indir,interrogative pronouns
,inter-stimulus,canvas.Screen,2_33_2,,,,,,response,686.6999999940163,462867.90000000596,462864.49,462880.9,463567.59999999404,463569.1999999881,2025-02-01T11:30:34.556Z,463580.5,cR4aC90T73,incremental,jednostavno-test,679df971131ae225e46b4282,participant,hcpib7hgm6m3tmkg,,,mousedown,"Kome, učitelj je pitao, što treba ponovno objasniti?",Učitelj je pitao što treba učenicima ponovno objasniti..,iq,0,36,4,ob_dir,ob_dir + ob_indir,interrogative pronouns
,Sequence,flow.Sequence,2_33,,,,,,completion,14733.399999994028,448830.1999999881,448817.994,448834.2,463567.59999999404,463569.5,2025-02-01T11:30:34.557Z,463580.5,cR4aC90T73,incremental,jednostavno-test,679df971131ae225e46b4282,participant,hcpib7hgm6m3tmkg,,,,"Kome, učitelj je pitao, što treba ponovno objasniti?",Učitelj je pitao što treba učenicima ponovno objasniti..,iq,0,36,4,ob_dir,ob_dir + ob_indir,interrogative pronouns
,context,canvas.Screen,2_34_0_0,,,,,,response,3208.5999999940395,463569.90000000596,463564.206,463580.5,466789.09999999404,466790.40000000596,2025-02-01T11:30:37.777Z,466813.3,cR4aC90T73,incremental,jednostavno-test,679df971131ae225e46b4282,participant,hcpib7hgm6m3tmkg,,,click,"Tko, zanima ih, što će kupiti za vjenčani dar?",Zanima ih što će Matej kupiti za vjenčani dar.,iq,0,0,0,sub,sub + ob,interrogative pronouns
,Timer frame,html.Frame,2_34_0,,,,,,,3210.0999999940395,463569.6999999881,463564.206,463580.5,466790.59999999404,466790.7999999821,2025-02-01T11:30:37.778Z,466813.3,cR4aC90T73,incremental,jednostavno-test,679df971131ae225e46b4282,participant,hcpib7hgm6m3tmkg,,,,"Tko, zanima ih, što će kupiti za vjenčani dar?",Zanima ih što će Matej kupiti za vjenčani dar.,iq,0,0,0,sub,sub + ob,interrogative pronouns
,stimulus,canvas.Screen,2_34_1_0,,,,,,response,4822.799999994051,466791.1999999881,466796.824,466813.3,471636.09999999404,471637.40000000596,2025-02-01T11:30:42.624Z,471645.3,cR4aC90T73,incremental,jednostavno-test,679df971131ae225e46b4282,participant,hcpib7hgm6m3tmkg,,1,click @1,"Tko, zanima ih, što će kupiti za vjenčani dar?",Zanima ih što će Matej kupiti za vjenčani dar.,iq,0,0,0,sub,sub + ob,interrogative pronouns
,Timer frame,html.Frame,2_34_1,,,,,,,4824.299999994051,466791,466796.824,466813.3,471637.59999999404,471637.7999999821,2025-02-01T11:30:42.625Z,471645.3,cR4aC90T73,incremental,jednostavno-test,679df971131ae225e46b4282,participant,hcpib7hgm6m3tmkg,,,,"Tko, zanima ih, što će kupiti za vjenčani dar?",Zanima ih što će Matej kupiti za vjenčani dar.,iq,0,0,0,sub,sub + ob,interrogative pronouns
,inter-stimulus,canvas.Screen,2_34_2,,,,,,response,1186.600000005972,471637.90000000596,471628.898,471645.3,472831.90000000596,472833.7999999821,2025-02-01T11:30:43.821Z,472845,cR4aC90T73,incremental,jednostavno-test,679df971131ae225e46b4282,participant,hcpib7hgm6m3tmkg,,,mousedown,"Tko, zanima ih, što će kupiti za vjenčani dar?",Zanima ih što će Matej kupiti za vjenčani dar.,iq,0,0,0,sub,sub + ob,interrogative pronouns
,Sequence,flow.Sequence,2_34,,,,,,completion,9251.40000000596,463569.59999999404,463564.206,463580.5,472831.90000000596,472834.09999999404,2025-02-01T11:30:43.821Z,472845,cR4aC90T73,incremental,jednostavno-test,679df971131ae225e46b4282,participant,hcpib7hgm6m3tmkg,,,,"Tko, zanima ih, što će kupiti za vjenčani dar?",Zanima ih što će Matej kupiti za vjenčani dar.,iq,0,0,0,sub,sub + ob,interrogative pronouns
,context,canvas.Screen,2_35_0_0,,,,,,response,1703.7999999821186,472834.59999999404,472828.62,472845,474548.7999999821,474550,2025-02-01T11:30:45.537Z,474577.8,cR4aC90T73,incremental,jednostavno-test,679df971131ae225e46b4282,participant,hcpib7hgm6m3tmkg,,,click,Nego volim pivo više vino.,Više volim vino nego pivo.,nf,,,56,filler,filler,filler
,Timer frame,html.Frame,2_35_0,,,,,,,1705.199999988079,472834.2999999821,472828.62,472845,474550.1999999881,474550.2999999821,2025-02-01T11:30:45.537Z,474577.8,cR4aC90T73,incremental,jednostavno-test,679df971131ae225e46b4282,participant,hcpib7hgm6m3tmkg,,,,Nego volim pivo više vino.,Više volim vino nego pivo.,nf,,,56,filler,filler,filler
,stimulus,canvas.Screen,2_35_1_0,,,,,,response,3400.4999999821302,474550.7999999821,474561.266,474577.8,477978.2999999821,477979.5,2025-02-01T11:30:48.967Z,478010.4,cR4aC90T73,incremental,jednostavno-test,679df971131ae225e46b4282,participant,hcpib7hgm6m3tmkg,,1,click @1,Nego volim pivo više vino.,Više volim vino nego pivo.,nf,,,56,filler,filler,filler
,Timer frame,html.Frame,2_35_1,,,,,,,3401.8999999880907,474550.40000000596,474561.266,474577.8,477979.6999999881,477979.90000000596,2025-02-01T11:30:48.967Z,478010.4,cR4aC90T73,incremental,jednostavno-test,679df971131ae225e46b4282,participant,hcpib7hgm6m3tmkg,,,,Nego volim pivo više vino.,Više volim vino nego pivo.,nf,,,56,filler,filler,filler
,inter-stimulus,canvas.Screen,2_35_2,,,,,,response,1054.2999999880558,477980,477994.128,478010.4,479064.6999999881,479066.40000000596,2025-02-01T11:30:50.053Z,479076.8,cR4aC90T73,incremental,jednostavno-test,679df971131ae225e46b4282,participant,hcpib7hgm6m3tmkg,,,mousedown,Nego volim pivo više vino.,Više volim vino nego pivo.,nf,,,56,filler,filler,filler
,Sequence,flow.Sequence,2_35,,,,,,completion,6219.699999988079,472834.1999999881,472828.62,472845,479064.6999999881,479066.6999999881,2025-02-01T11:30:50.054Z,479076.8,cR4aC90T73,incremental,jednostavno-test,679df971131ae225e46b4282,participant,hcpib7hgm6m3tmkg,,,,Nego volim pivo više vino.,Više volim vino nego pivo.,nf,,,56,filler,filler,filler
,context,canvas.Screen,2_36_0_0,,,,,,response,1796.600000005972,479067.1999999881,479060.456,479076.8,480873.40000000596,480874,2025-02-01T11:30:51.861Z,480893,cR4aC90T73,incremental,jednostavno-test,679df971131ae225e46b4282,participant,hcpib7hgm6m3tmkg,,,click,Kamo na ljeto ide Slavko na work and travel program?,Na ljeto Slavko ide u USA na work and travel program.,iq,0,0,8,ad,ad + ad+ ad,interrogative pronouns
,Timer frame,html.Frame,2_36_0,,,,,,,1797.3999999880907,479066.90000000596,479060.456,479076.8,480874.1999999881,480874.2999999821,2025-02-01T11:30:51.861Z,480893,cR4aC90T73,incremental,jednostavno-test,679df971131ae225e46b4282,participant,hcpib7hgm6m3tmkg,,,,Kamo na ljeto ide Slavko na work and travel program?,Na ljeto Slavko ide u USA na work and travel program.,iq,0,0,8,ad,ad + ad+ ad,interrogative pronouns
,stimulus,canvas.Screen,2_36_1_0,,,,,,response,4130.5999999940395,480874.59999999404,480876.5,480893,485023.59999999404,485025,2025-02-01T11:30:56.012Z,485058.9,cR4aC90T73,incremental,jednostavno-test,679df971131ae225e46b4282,participant,hcpib7hgm6m3tmkg,,7,click @7,Kamo na ljeto ide Slavko na work and travel program?,Na ljeto Slavko ide u USA na work and travel program.,iq,0,0,8,ad,ad + ad+ ad,interrogative pronouns
,Timer frame,html.Frame,2_36_1,,,,,,,4132.299999982119,480874.40000000596,480876.5,480893,485025.2999999821,485025.40000000596,2025-02-01T11:30:56.012Z,485058.9,cR4aC90T73,incremental,jednostavno-test,679df971131ae225e46b4282,participant,hcpib7hgm6m3tmkg,,,,Kamo na ljeto ide Slavko na work and travel program?,Na ljeto Slavko ide u USA na work and travel program.,iq,0,0,8,ad,ad + ad+ ad,interrogative pronouns
,inter-stimulus,canvas.Screen,2_36_2,,,,,,response,1268.2999999880558,485025.5,485041.9,485058.9,486327.1999999881,486328.6999999881,2025-02-01T11:30:57.316Z,486341.7,cR4aC90T73,incremental,jednostavno-test,679df971131ae225e46b4282,participant,hcpib7hgm6m3tmkg,,,mousedown,Kamo na ljeto ide Slavko na work and travel program?,Na ljeto Slavko ide u USA na work and travel program.,iq,0,0,8,ad,ad + ad+ ad,interrogative pronouns
,Sequence,flow.Sequence,2_36,,,,,,completion,7250.399999988091,479066.90000000596,479060.456,479076.8,486327.1999999881,486329.09999999404,2025-02-01T11:30:57.316Z,486341.7,cR4aC90T73,incremental,jednostavno-test,679df971131ae225e46b4282,participant,hcpib7hgm6m3tmkg,,,,Kamo na ljeto ide Slavko na work and travel program?,Na ljeto Slavko ide u USA na work and travel program.,iq,0,0,8,ad,ad + ad+ ad,interrogative pronouns
,context,canvas.Screen,2_37_0_0,,,,,,response,3680.899999994028,486329.7999999821,486325.516,486341.7,490022.59999999404,490023.6999999881,2025-02-01T11:31:01.011Z,490041,cR4aC90T73,incremental,jednostavno-test,679df971131ae225e46b4282,participant,hcpib7hgm6m3tmkg,,,click,Što sam izčitao od te Necronomiconu?,Našao sam nekakav Necronomicon na tavanu.,nf,,,53,filler,filler,filler
,Timer frame,html.Frame,2_37_0,,,,,,,3682.200000005949,486329.2999999821,486325.516,486341.7,490023.90000000596,490024.09999999404,2025-02-01T11:31:01.011Z,490041,cR4aC90T73,incremental,jednostavno-test,679df971131ae225e46b4282,participant,hcpib7hgm6m3tmkg,,,,Što sam izčitao od te Necronomiconu?,Našao sam nekakav Necronomicon na tavanu.,nf,,,53,filler,filler,filler
,stimulus,canvas.Screen,2_37_1_0,,,,,,response,4613.5999999940395,490024.5,490024.61,490041,494654.59999999404,494655.90000000596,2025-02-01T11:31:05.643Z,494673,cR4aC90T73,incremental,jednostavno-test,679df971131ae225e46b4282,participant,hcpib7hgm6m3tmkg,,2,click @2,Što sam izčitao od te Necronomiconu?,Našao sam nekakav Necronomicon na tavanu.,nf,,,53,filler,filler,filler
,Timer frame,html.Frame,2_37_1,,,,,,,4615.0999999940395,490024.1999999881,490024.61,490041,494656.09999999404,494656.40000000596,2025-02-01T11:31:05.643Z,494673,cR4aC90T73,incremental,jednostavno-test,679df971131ae225e46b4282,participant,hcpib7hgm6m3tmkg,,,,Što sam izčitao od te Necronomiconu?,Našao sam nekakav Necronomicon na tavanu.,nf,,,53,filler,filler,filler
,inter-stimulus,canvas.Screen,2_37_2,,,,,,response,870.5,494656.5,494656.938,494673,495543.5,495545.5,2025-02-01T11:31:06.533Z,495556,cR4aC90T73,incremental,jednostavno-test,679df971131ae225e46b4282,participant,hcpib7hgm6m3tmkg,,,mousedown,Što sam izčitao od te Necronomiconu?,Našao sam nekakav Necronomicon na tavanu.,nf,,,53,filler,filler,filler
,Sequence,flow.Sequence,2_37,,,,,,completion,9201.799999999988,486329.2999999821,486325.516,486341.7,495543.5,495545.90000000596,2025-02-01T11:31:06.533Z,495556,cR4aC90T73,incremental,jednostavno-test,679df971131ae225e46b4282,participant,hcpib7hgm6m3tmkg,,,,Što sam izčitao od te Necronomiconu?,Našao sam nekakav Necronomicon na tavanu.,nf,,,53,filler,filler,filler
,context,canvas.Screen,2_38_0_0,,,,,,response,3433.4000000059605,495546.2999999821,495539.866,495556,498989.40000000596,498990.59999999404,2025-02-01T11:31:09.978Z,499005.4,cR4aC90T73,incremental,jednostavno-test,679df971131ae225e46b4282,participant,hcpib7hgm6m3tmkg,,,click,Morat ću raditi u tim uvjetima u kojim baš sam pitao kako se ponašati.,Pitao sam kako se ponašati u takvim uvjetima.,iq,0,0,18,ad,ob + ad,relative pronouns
,Timer frame,html.Frame,2_38_0,,,,,,,3434.7999999821186,495546.09999999404,495539.866,495556,498990.7999999821,498991,2025-02-01T11:31:09.978Z,499005.4,cR4aC90T73,incremental,jednostavno-test,679df971131ae225e46b4282,participant,hcpib7hgm6m3tmkg,,,,Morat ću raditi u tim uvjetima u kojim baš sam pitao kako se ponašati.,Pitao sam kako se ponašati u takvim uvjetima.,iq,0,0,18,ad,ob + ad,relative pronouns
,stimulus,canvas.Screen,2_38_1_0,,,,,,response,8392.899999982095,498991.40000000596,498988.962,499005.4,507398.2999999821,507399.6999999881,2025-02-01T11:31:18.387Z,507419.9,cR4aC90T73,incremental,jednostavno-test,679df971131ae225e46b4282,participant,hcpib7hgm6m3tmkg,,4,click @4,Morat ću raditi u tim uvjetima u kojim baš sam pitao kako se ponašati.,Pitao sam kako se ponašati u takvim uvjetima.,iq,0,0,18,ad,ob + ad,relative pronouns
,Timer frame,html.Frame,2_38_1,,,,,,,8394.599999999977,498991.1999999881,498988.962,499005.4,507400,507400.09999999404,2025-02-01T11:31:18.387Z,507419.9,cR4aC90T73,incremental,jednostavno-test,679df971131ae225e46b4282,participant,hcpib7hgm6m3tmkg,,,,Morat ću raditi u tim uvjetima u kojim baš sam pitao kako se ponašati.,Pitao sam kako se ponašati u takvim uvjetima.,iq,0,0,18,ad,ob + ad,relative pronouns
,inter-stimulus,canvas.Screen,2_38_2,,,,,,response,908.1999999940163,507400.1999999881,507403.696,507419.9,508328.09999999404,508329.7999999821,2025-02-01T11:31:19.317Z,508336.4,cR4aC90T73,incremental,jednostavno-test,679df971131ae225e46b4282,participant,hcpib7hgm6m3tmkg,,,mousedown,Morat ću raditi u tim uvjetima u kojim baš sam pitao kako se ponašati.,Pitao sam kako se ponašati u takvim uvjetima.,iq,0,0,18,ad,ob + ad,relative pronouns
