meta,sender,sender_type,sender_id,age,education,croatian-knowledge,occupation,,ended_on,duration,time_run,time_render,time_show,time_end,time_commit,timestamp,time_switch,openLabId,type,task,project,status,code,confirmationCode,response,response_action,stimulus,context,island_type,transfer_s,transfer_c,id,movement,opposition,category
"{""labjs_version"":""20.2.4"",""labjs_build"":{""flavor"":""production"",""commit"":""f5b4a49f956347addd546a832a3327688c2c0fef""},""location"":""https://open-lab.online/test/jednostavno-test/679e3c23131ae225e46b4373"",""userAgent"":""Mozilla/5.0 (Windows NT 10.0; Win64; x64) AppleWebKit/537.36 (KHTML, like Gecko) Chrome/132.0.0.0 Safari/537.36"",""platform"":""Win32"",""language"":""en-DE"",""locale"":""en-US"",""timeZone"":""Europe/Zagreb"",""timezoneOffset"":-60,""screen_width"":2560,""screen_height"":1440,""scroll_width"":2560,""scroll_height"":1231,""window_innerWidth"":2560,""window_innerHeight"":1279,""devicePixelRatio"":1}",Demography form,html.Form,0,36,master,mother-tongue,"ekonomist, računovođa",,form submission,32575.30000009537,602.5,609.4,626.1,33201.40000009537,33201.799999952316,2025-02-01T15:22:47.364Z,33203,emVzklJhmZ,incremental,jednostavno-test,679df971131ae225e46b4282,participant,hcpib7hgm6mcd33v,730172,,,,,,,,,,,
,context,canvas.Screen,1_0,,,,,,response,9031.200000047684,33202,33202.482,33203,42234.200000047684,42234.700000047684,2025-02-01T15:22:56.397Z,42243.7,emVzklJhmZ,incremental,jednostavno-test,679df971131ae225e46b4282,participant,hcpib7hgm6mcd33v,,,click,,,,,,,,,
,stimulus,canvas.Screen,1_1,,,,,,response,68702.70000009537,42234.799999952316,42226.9,42243.7,110946.40000009537,110946.90000009537,2025-02-01T15:24:05.110Z,110950.2,emVzklJhmZ,incremental,jednostavno-test,679df971131ae225e46b4282,participant,hcpib7hgm6mcd33v,,7,click @7,,,,,,,,,
,inter-stimulus,canvas.Screen,1_2,,,,,,response,3993.3999999046355,110947,110933.5,110950.2,114943.59999990463,114944.59999990463,2025-02-01T15:24:09.107Z,114970.2,emVzklJhmZ,incremental,jednostavno-test,679df971131ae225e46b4282,participant,hcpib7hgm6mcd33v,,,mousedown,,,,,,,,,
,context,canvas.Screen,1_3,,,,,,response,7159.300000000003,114944.70000004768,114953.6,114970.2,122129.5,122129.90000009537,2025-02-01T15:24:16.292Z,122142.8,emVzklJhmZ,incremental,jednostavno-test,679df971131ae225e46b4282,participant,hcpib7hgm6mcd33v,,,click,,,,,,,,,
,stimulus,canvas.Screen,1_4,,,,,,response,11167.699999999997,122129.90000009537,122126,122142.8,133310.5,133311,2025-02-01T15:24:27.474Z,133318.7,emVzklJhmZ,incremental,jednostavno-test,679df971131ae225e46b4282,participant,hcpib7hgm6mcd33v,,1,click @1,,,,,,,,,
,inter-stimulus,canvas.Screen,1_5,,,,,,response,1067.0999999523046,133311.09999990463,133301.9,133318.7,134385.79999995232,134386.29999995232,2025-02-01T15:24:28.549Z,134402.9,emVzklJhmZ,incremental,jednostavno-test,679df971131ae225e46b4282,participant,hcpib7hgm6mcd33v,,,mousedown,,,,,,,,,
,context,canvas.Screen,1_6,,,,,,response,3487.6999999046384,134386.40000009537,134386.2,134402.9,137890.59999990463,137891,2025-02-01T15:24:32.054Z,137905.7,emVzklJhmZ,incremental,jednostavno-test,679df971131ae225e46b4282,participant,hcpib7hgm6mcd33v,,,click,,,,,,,,,
,stimulus,canvas.Screen,1_7_0,,,,,,response,5231.899999904621,137892.09999990463,137889.1,137905.7,143137.59999990463,143138,2025-02-01T15:24:37.301Z,143143.4,emVzklJhmZ,incremental,jednostavno-test,679df971131ae225e46b4282,participant,hcpib7hgm6mcd33v,,7,click @7,,,,,,,,,
,Timer frame,html.Frame,1_7,,,,,,,5232.399999904621,137891,137889.1,137905.7,143138.09999990463,143138.20000004768,2025-02-01T15:24:37.301Z,143143.4,emVzklJhmZ,incremental,jednostavno-test,679df971131ae225e46b4282,participant,hcpib7hgm6mcd33v,,,,,,,,,,,,
,inter-stimulus,canvas.Screen,1_8,,,,,,response,3533.5000000953733,143138.20000004768,143126.766,143143.4,146676.90000009537,146677.59999990463,2025-02-01T15:24:40.840Z,146679.7,emVzklJhmZ,incremental,jednostavno-test,679df971131ae225e46b4282,participant,hcpib7hgm6mcd33v,,,mousedown,,,,,,,,,
,First stimuli,flow.Sequence,1,,,,,,completion,113473.90000009537,33201.90000009537,33202.482,33203,146676.90000009537,146677.70000004768,2025-02-01T15:24:40.840Z,146679.7,emVzklJhmZ,incremental,jednostavno-test,679df971131ae225e46b4282,participant,hcpib7hgm6mcd33v,,,,,,,,,,,,
,context,canvas.Screen,2_0_0_0,,,,,,response,4199.000000047672,146678,146678.196,146679.7,150878.70000004768,150879,2025-02-01T15:24:45.042Z,150883.1,emVzklJhmZ,incremental,jednostavno-test,679df971131ae225e46b4282,participant,hcpib7hgm6mcd33v,,,click,"Kome, učitelj je pitao, što treba ponovno objasniti?",Učitelj je pitao što treba učenicima ponovno objasniti..,iq,0,36,4,ob_dir,ob_dir + ob_indir,interrogative pronouns
,Timer frame,html.Frame,2_0_0,,,,,,,4199.399999904621,146677.79999995232,146678.196,146679.7,150879.09999990463,150879.20000004768,2025-02-01T15:24:45.042Z,150883.1,emVzklJhmZ,incremental,jednostavno-test,679df971131ae225e46b4282,participant,hcpib7hgm6mcd33v,,,,"Kome, učitelj je pitao, što treba ponovno objasniti?",Učitelj je pitao što treba učenicima ponovno objasniti..,iq,0,36,4,ob_dir,ob_dir + ob_indir,interrogative pronouns
,stimulus,canvas.Screen,2_0_1_0,,,,,,response,9097.600000047678,150879.29999995232,150867.596,150883.1,159980.70000004768,159981.09999990463,2025-02-01T15:24:54.144Z,160007.3,emVzklJhmZ,incremental,jednostavno-test,679df971131ae225e46b4282,participant,hcpib7hgm6mcd33v,,5,click @5,"Kome, učitelj je pitao, što treba ponovno objasniti?",Učitelj je pitao što treba učenicima ponovno objasniti..,iq,0,36,4,ob_dir,ob_dir + ob_indir,interrogative pronouns
,Timer frame,html.Frame,2_0_1,,,,,,,9098.100000047678,150879.20000004768,150867.596,150883.1,159981.20000004768,159981.29999995232,2025-02-01T15:24:54.144Z,160007.3,emVzklJhmZ,incremental,jednostavno-test,679df971131ae225e46b4282,participant,hcpib7hgm6mcd33v,,,,"Kome, učitelj je pitao, što treba ponovno objasniti?",Učitelj je pitao što treba učenicima ponovno objasniti..,iq,0,36,4,ob_dir,ob_dir + ob_indir,interrogative pronouns
,inter-stimulus,canvas.Screen,2_0_2,,,,,,response,2252.9000000476954,159981.29999995232,159990.6,160007.3,162260.20000004768,162260.79999995232,2025-02-01T15:24:56.423Z,162275.8,emVzklJhmZ,incremental,jednostavno-test,679df971131ae225e46b4282,participant,hcpib7hgm6mcd33v,,,mousedown,"Kome, učitelj je pitao, što treba ponovno objasniti?",Učitelj je pitao što treba učenicima ponovno objasniti..,iq,0,36,4,ob_dir,ob_dir + ob_indir,interrogative pronouns
,Sequence,flow.Sequence,2_0,,,,,,completion,15580.500000047672,146677.79999995232,146678.196,146679.7,162260.20000004768,162260.79999995232,2025-02-01T15:24:56.423Z,162275.8,emVzklJhmZ,incremental,jednostavno-test,679df971131ae225e46b4282,participant,hcpib7hgm6mcd33v,,,,"Kome, učitelj je pitao, što treba ponovno objasniti?",Učitelj je pitao što treba učenicima ponovno objasniti..,iq,0,36,4,ob_dir,ob_dir + ob_indir,interrogative pronouns
,context,canvas.Screen,2_1_0_0,,,,,,response,3207.9000000476954,162261,162259.1,162275.8,165483.70000004768,165484,2025-02-01T15:24:59.647Z,165511.8,emVzklJhmZ,incremental,jednostavno-test,679df971131ae225e46b4282,participant,hcpib7hgm6mcd33v,,,click,Što je Anton napisao u pismu?,Anton je u pismu napisao besmislicu.,gf,,,45,filler,filler,filler
,Timer frame,html.Frame,2_1_0,,,,,,,3208.2000000000116,162260.90000009537,162259.1,162275.8,165484,165484.09999990463,2025-02-01T15:24:59.647Z,165511.8,emVzklJhmZ,incremental,jednostavno-test,679df971131ae225e46b4282,participant,hcpib7hgm6mcd33v,,,,Što je Anton napisao u pismu?,Anton je u pismu napisao besmislicu.,gf,,,45,filler,filler,filler
,stimulus,canvas.Screen,2_1_1_0,,,,,,response,4449.900000047695,165484.20000004768,165495.1,165511.8,169961.70000004768,169962.20000004768,2025-02-01T15:25:04.125Z,169965.4,emVzklJhmZ,incremental,jednostavno-test,679df971131ae225e46b4282,participant,hcpib7hgm6mcd33v,,7,click @7,Što je Anton napisao u pismu?,Anton je u pismu napisao besmislicu.,gf,,,45,filler,filler,filler
,Timer frame,html.Frame,2_1_1,,,,,,,4450.400000047695,165484.09999990463,165495.1,165511.8,169962.20000004768,169962.29999995232,2025-02-01T15:25:04.125Z,169965.4,emVzklJhmZ,incremental,jednostavno-test,679df971131ae225e46b4282,participant,hcpib7hgm6mcd33v,,,,Što je Anton napisao u pismu?,Anton je u pismu napisao besmislicu.,gf,,,45,filler,filler,filler
,inter-stimulus,canvas.Screen,2_1_2,,,,,,response,1263.8000000476895,169962.29999995232,169948.898,169965.4,171229.20000004768,171229.70000004768,2025-02-01T15:25:05.392Z,171233.2,emVzklJhmZ,incremental,jednostavno-test,679df971131ae225e46b4282,participant,hcpib7hgm6mcd33v,,,mousedown,Što je Anton napisao u pismu?,Anton je u pismu napisao besmislicu.,gf,,,45,filler,filler,filler
,Sequence,flow.Sequence,2_1,,,,,,completion,8953.400000047695,162260.90000009537,162259.1,162275.8,171229.20000004768,171229.79999995232,2025-02-01T15:25:05.392Z,171233.2,emVzklJhmZ,incremental,jednostavno-test,679df971131ae225e46b4282,participant,hcpib7hgm6mcd33v,,,,Što je Anton napisao u pismu?,Anton je u pismu napisao besmislicu.,gf,,,45,filler,filler,filler
,context,canvas.Screen,2_2_0_0,,,,,,response,4602.500000047672,171230.09999990463,171216.5,171233.2,175835.70000004768,175836,2025-02-01T15:25:09.999Z,175853.7,emVzklJhmZ,incremental,jednostavno-test,679df971131ae225e46b4282,participant,hcpib7hgm6mcd33v,,,click,Koliko slonova Ivo je rekao da je vidio na safariju?,Ivo je rekao da je vidio dva slona na safariju.,fac,,,36,ad_measure,ob_dir + ad_mode + ad_measure,interrogative pronouns
,Timer frame,html.Frame,2_2_0,,,,,,,4602.899999904621,171229.90000009537,171216.5,171233.2,175836.09999990463,175836.09999990463,2025-02-01T15:25:09.999Z,175853.7,emVzklJhmZ,incremental,jednostavno-test,679df971131ae225e46b4282,participant,hcpib7hgm6mcd33v,,,,Koliko slonova Ivo je rekao da je vidio na safariju?,Ivo je rekao da je vidio dva slona na safariju.,fac,,,36,ad_measure,ob_dir + ad_mode + ad_measure,interrogative pronouns
,stimulus,canvas.Screen,2_2_1_0,,,,,,timeout,10992.299999999988,175836.20000004768,175836.966,175853.7,186829.3,186829.70000004768,2025-02-01T15:25:20.992Z,186846,emVzklJhmZ,incremental,jednostavno-test,679df971131ae225e46b4282,participant,hcpib7hgm6mcd33v,,,,Koliko slonova Ivo je rekao da je vidio na safariju?,Ivo je rekao da je vidio dva slona na safariju.,fac,,,36,ad_measure,ob_dir + ad_mode + ad_measure,interrogative pronouns
,Timer frame,html.Frame,2_2_1,,,,,,,10976.000000047672,175836.09999990463,175836.966,175853.7,186829.70000004768,186829.79999995232,2025-02-01T15:25:20.992Z,186862.7,emVzklJhmZ,incremental,jednostavno-test,679df971131ae225e46b4282,participant,hcpib7hgm6mcd33v,,,,Koliko slonova Ivo je rekao da je vidio na safariju?,Ivo je rekao da je vidio dva slona na safariju.,fac,,,36,ad_measure,ob_dir + ad_mode + ad_measure,interrogative pronouns
,inter-stimulus,canvas.Screen,2_2_2,,,,,,response,1781.399999904621,186829.79999995232,186846,186862.7,188644.09999990463,188644.79999995232,2025-02-01T15:25:22.807Z,188647.6,emVzklJhmZ,incremental,jednostavno-test,679df971131ae225e46b4282,participant,hcpib7hgm6mcd33v,,,mousedown,Koliko slonova Ivo je rekao da je vidio na safariju?,Ivo je rekao da je vidio dva slona na safariju.,fac,,,36,ad_measure,ob_dir + ad_mode + ad_measure,interrogative pronouns
,Sequence,flow.Sequence,2_2,,,,,,completion,17410.89999990462,171229.90000009537,171216.5,171233.2,188644.09999990463,188644.79999995232,2025-02-01T15:25:22.807Z,188647.6,emVzklJhmZ,incremental,jednostavno-test,679df971131ae225e46b4282,participant,hcpib7hgm6mcd33v,,,,Koliko slonova Ivo je rekao da je vidio na safariju?,Ivo je rekao da je vidio dva slona na safariju.,fac,,,36,ad_measure,ob_dir + ad_mode + ad_measure,interrogative pronouns
,context,canvas.Screen,2_3_0_0,,,,,,response,2313.1999999523105,188645,188630.9,188647.6,190960.79999995232,190961.09999990463,2025-02-01T15:25:25.124Z,190982.8,emVzklJhmZ,incremental,jednostavno-test,679df971131ae225e46b4282,participant,hcpib7hgm6mcd33v,,,click,Pronašao sam taj uređaj koji mislim da je Marina izgubila.,Mislim da je Marina izgubila laptop.,fac,,,42,ob,ob + ob,non-interrogative component
,Timer frame,html.Frame,2_3_0,,,,,,,2313.600000047678,188644.90000009537,188630.9,188647.6,190961.20000004768,190961.20000004768,2025-02-01T15:25:25.124Z,190982.8,emVzklJhmZ,incremental,jednostavno-test,679df971131ae225e46b4282,participant,hcpib7hgm6mcd33v,,,,Pronašao sam taj uređaj koji mislim da je Marina izgubila.,Mislim da je Marina izgubila laptop.,fac,,,42,ob,ob + ob,non-interrogative component
,stimulus,canvas.Screen,2_3_1_0,,,,,,response,6269.999999952328,190961.40000009537,190966.1,190982.8,197252.79999995232,197253.20000004768,2025-02-01T15:25:31.416Z,197254.6,emVzklJhmZ,incremental,jednostavno-test,679df971131ae225e46b4282,participant,hcpib7hgm6mcd33v,,6,click @6,Pronašao sam taj uređaj koji mislim da je Marina izgubila.,Mislim da je Marina izgubila laptop.,fac,,,42,ob,ob + ob,non-interrogative component
,Timer frame,html.Frame,2_3_1,,,,,,,6270.499999952328,190961.20000004768,190966.1,190982.8,197253.29999995232,197253.40000009537,2025-02-01T15:25:31.416Z,197254.6,emVzklJhmZ,incremental,jednostavno-test,679df971131ae225e46b4282,participant,hcpib7hgm6mcd33v,,,,Pronašao sam taj uređaj koji mislim da je Marina izgubila.,Mislim da je Marina izgubila laptop.,fac,,,42,ob,ob + ob,non-interrogative component
,inter-stimulus,canvas.Screen,2_3_2,,,,,,response,3865.6999999523105,197253.5,197237.9,197254.6,201120.29999995232,201121,2025-02-01T15:25:35.284Z,201124.5,emVzklJhmZ,incremental,jednostavno-test,679df971131ae225e46b4282,participant,hcpib7hgm6mcd33v,,,mousedown,Pronašao sam taj uređaj koji mislim da je Marina izgubila.,Mislim da je Marina izgubila laptop.,fac,,,42,ob,ob + ob,non-interrogative component
,Sequence,flow.Sequence,2_3,,,,,,completion,12472.69999995231,188644.90000009537,188630.9,188647.6,201120.29999995232,201121.09999990463,2025-02-01T15:25:35.284Z,201124.5,emVzklJhmZ,incremental,jednostavno-test,679df971131ae225e46b4282,participant,hcpib7hgm6mcd33v,,,,Pronašao sam taj uređaj koji mislim da je Marina izgubila.,Mislim da je Marina izgubila laptop.,fac,,,42,ob,ob + ob,non-interrogative component
,context,canvas.Screen,2_4_0_0,,,,,,response,3338.2999999523163,201121.29999995232,201107.8,201124.5,204462.79999995232,204463.20000004768,2025-02-01T15:25:38.626Z,204493.9,emVzklJhmZ,incremental,jednostavno-test,679df971131ae225e46b4282,participant,hcpib7hgm6mcd33v,,,click,Došla je ta djevojka o kojoj sam pitao što je jela u restoranu.,Pitao sam što je Jasna jela u restoranu.,iq,,0,10,sub,sub + ob,relative pronouns
,Timer frame,html.Frame,2_4_0,,,,,,,3338.7000000476837,201121.09999990463,201107.8,201124.5,204463.20000004768,204463.20000004768,2025-02-01T15:25:38.626Z,204493.9,emVzklJhmZ,incremental,jednostavno-test,679df971131ae225e46b4282,participant,hcpib7hgm6mcd33v,,,,Došla je ta djevojka o kojoj sam pitao što je jela u restoranu.,Pitao sam što je Jasna jela u restoranu.,iq,,0,10,sub,sub + ob,relative pronouns
,stimulus,canvas.Screen,2_4_1_0,,,,,,response,5416.899999952322,204463.40000009537,204477.2,204493.9,209910.79999995232,209911.20000004768,2025-02-01T15:25:44.074Z,209915,emVzklJhmZ,incremental,jednostavno-test,679df971131ae225e46b4282,participant,hcpib7hgm6mcd33v,,5,click @5,Došla je ta djevojka o kojoj sam pitao što je jela u restoranu.,Pitao sam što je Jasna jela u restoranu.,iq,,0,10,sub,sub + ob,relative pronouns
,Timer frame,html.Frame,2_4_1,,,,,,,5417.399999952322,204463.20000004768,204477.2,204493.9,209911.29999995232,209911.40000009537,2025-02-01T15:25:44.074Z,209915,emVzklJhmZ,incremental,jednostavno-test,679df971131ae225e46b4282,participant,hcpib7hgm6mcd33v,,,,Došla je ta djevojka o kojoj sam pitao što je jela u restoranu.,Pitao sam što je Jasna jela u restoranu.,iq,,0,10,sub,sub + ob,relative pronouns
,inter-stimulus,canvas.Screen,2_4_2,,,,,,response,3107.2000000476837,209911.40000009537,209899.566,209915,213022.20000004768,213022.79999995232,2025-02-01T15:25:47.185Z,213034.2,emVzklJhmZ,incremental,jednostavno-test,679df971131ae225e46b4282,participant,hcpib7hgm6mcd33v,,,mousedown,Došla je ta djevojka o kojoj sam pitao što je jela u restoranu.,Pitao sam što je Jasna jela u restoranu.,iq,,0,10,sub,sub + ob,relative pronouns
,Sequence,flow.Sequence,2_4,,,,,,completion,11897.700000047684,201121.09999990463,201107.8,201124.5,213022.20000004768,213023,2025-02-01T15:25:47.186Z,213034.2,emVzklJhmZ,incremental,jednostavno-test,679df971131ae225e46b4282,participant,hcpib7hgm6mcd33v,,,,Došla je ta djevojka o kojoj sam pitao što je jela u restoranu.,Pitao sam što je Jasna jela u restoranu.,iq,,0,10,sub,sub + ob,relative pronouns
,context,canvas.Screen,2_5_0_0,,,,,,response,7281.599999952305,213023.29999995232,213017.6,213034.2,220315.79999995232,220316.20000004768,2025-02-01T15:25:54.479Z,220323.6,emVzklJhmZ,incremental,jednostavno-test,679df971131ae225e46b4282,participant,hcpib7hgm6mcd33v,,,click,"Gdje, tvoja prijateljica pitala je, tko radi?",Tvoja prijateljica pitala je tko radi u školi.,iq,0,0,3,ad,sub + ob,interrogative pronouns
,Timer frame,html.Frame,2_5_0,,,,,,,7282.099999952305,213023,213017.6,213034.2,220316.29999995232,220316.40000009537,2025-02-01T15:25:54.479Z,220323.6,emVzklJhmZ,incremental,jednostavno-test,679df971131ae225e46b4282,participant,hcpib7hgm6mcd33v,,,,"Gdje, tvoja prijateljica pitala je, tko radi?",Tvoja prijateljica pitala je tko radi u školi.,iq,0,0,3,ad,sub + ob,interrogative pronouns
,stimulus,canvas.Screen,2_5_1_0,,,,,,response,4935.300000095362,220316.5,220306.9,220323.6,225258.90000009537,225259.29999995232,2025-02-01T15:25:59.422Z,225261,emVzklJhmZ,incremental,jednostavno-test,679df971131ae225e46b4282,participant,hcpib7hgm6mcd33v,,2,click @2,"Gdje, tvoja prijateljica pitala je, tko radi?",Tvoja prijateljica pitala je tko radi u školi.,iq,0,0,3,ad,sub + ob,interrogative pronouns
,Timer frame,html.Frame,2_5_1,,,,,,,4935.800000095362,220316.40000009537,220306.9,220323.6,225259.40000009537,225259.40000009537,2025-02-01T15:25:59.422Z,225261,emVzklJhmZ,incremental,jednostavno-test,679df971131ae225e46b4282,participant,hcpib7hgm6mcd33v,,,,"Gdje, tvoja prijateljica pitala je, tko radi?",Tvoja prijateljica pitala je tko radi u školi.,iq,0,0,3,ad,sub + ob,interrogative pronouns
,inter-stimulus,canvas.Screen,2_5_2,,,,,,response,2638.2000000476837,225259.5,225244.332,225261,227899.20000004768,227899.79999995232,2025-02-01T15:26:02.062Z,227913.2,emVzklJhmZ,incremental,jednostavno-test,679df971131ae225e46b4282,participant,hcpib7hgm6mcd33v,,,mousedown,"Gdje, tvoja prijateljica pitala je, tko radi?",Tvoja prijateljica pitala je tko radi u školi.,iq,0,0,3,ad,sub + ob,interrogative pronouns
,Sequence,flow.Sequence,2_5,,,,,,completion,14865.000000047672,213023,213017.6,213034.2,227899.20000004768,227899.90000009537,2025-02-01T15:26:02.062Z,227913.2,emVzklJhmZ,incremental,jednostavno-test,679df971131ae225e46b4282,participant,hcpib7hgm6mcd33v,,,,"Gdje, tvoja prijateljica pitala je, tko radi?",Tvoja prijateljica pitala je tko radi u školi.,iq,0,0,3,ad,sub + ob,interrogative pronouns
,context,canvas.Screen,2_6_0_0,,,,,,response,1233.7000000953558,227900,227896.5,227913.2,229146.90000009537,229147.20000004768,2025-02-01T15:26:03.310Z,229147.5,emVzklJhmZ,incremental,jednostavno-test,679df971131ae225e46b4282,participant,hcpib7hgm6mcd33v,,,click,Želim pojesti jabuku što?,Želim pojesti jabuku.,nf,,,51,filler,filler,filler
,Timer frame,html.Frame,2_6_0,,,,,,,1234.0999999523046,227899.90000009537,227896.5,227913.2,229147.29999995232,229147.40000009537,2025-02-01T15:26:03.310Z,229147.5,emVzklJhmZ,incremental,jednostavno-test,679df971131ae225e46b4282,participant,hcpib7hgm6mcd33v,,,,Želim pojesti jabuku što?,Želim pojesti jabuku.,nf,,,51,filler,filler,filler
,stimulus,canvas.Screen,2_6_1_0,,,,,,response,4140.400000095367,229147.5,229147.498,229147.5,233287.90000009537,233288.29999995232,2025-02-01T15:26:07.451Z,233317.7,emVzklJhmZ,incremental,jednostavno-test,679df971131ae225e46b4282,participant,hcpib7hgm6mcd33v,,2,click @2,Želim pojesti jabuku što?,Želim pojesti jabuku.,nf,,,51,filler,filler,filler
,Timer frame,html.Frame,2_6_1,,,,,,,4140.799999952316,229147.40000009537,229147.498,229147.5,233288.29999995232,233288.29999995232,2025-02-01T15:26:07.451Z,233317.7,emVzklJhmZ,incremental,jednostavno-test,679df971131ae225e46b4282,participant,hcpib7hgm6mcd33v,,,,Želim pojesti jabuku što?,Želim pojesti jabuku.,nf,,,51,filler,filler,filler
,inter-stimulus,canvas.Screen,2_6_2,,,,,,response,1460.500000047672,233288.40000009537,233300.9,233317.7,234778.20000004768,234778.70000004768,2025-02-01T15:26:08.941Z,234785.5,emVzklJhmZ,incremental,jednostavno-test,679df971131ae225e46b4282,participant,hcpib7hgm6mcd33v,,,mousedown,Želim pojesti jabuku što?,Želim pojesti jabuku.,nf,,,51,filler,filler,filler
,Sequence,flow.Sequence,2_6,,,,,,completion,6865.000000047672,227899.90000009537,227896.5,227913.2,234778.20000004768,234778.90000009537,2025-02-01T15:26:08.941Z,234785.5,emVzklJhmZ,incremental,jednostavno-test,679df971131ae225e46b4282,participant,hcpib7hgm6mcd33v,,,,Želim pojesti jabuku što?,Želim pojesti jabuku.,nf,,,51,filler,filler,filler
,context,canvas.Screen,2_7_0_0,,,,,,response,3062.4000000953674,234779.09999990463,234768.8,234785.5,237847.90000009537,237848.20000004768,2025-02-01T15:26:12.011Z,237854.7,emVzklJhmZ,incremental,jednostavno-test,679df971131ae225e46b4282,participant,hcpib7hgm6mcd33v,,,click,"Što, kurir je razjasnio, kada mora dostaviti?",Kurir je razjasnio kada mora dostaviti paket.,iq,,0,6,ob,ob + ad,interrogative pronouns
,Timer frame,html.Frame,2_7_0,,,,,,,3062.7000000476837,234778.90000009537,234768.8,234785.5,237848.20000004768,237848.29999995232,2025-02-01T15:26:12.011Z,237854.7,emVzklJhmZ,incremental,jednostavno-test,679df971131ae225e46b4282,participant,hcpib7hgm6mcd33v,,,,"Što, kurir je razjasnio, kada mora dostaviti?",Kurir je razjasnio kada mora dostaviti paket.,iq,,0,6,ob,ob + ad,interrogative pronouns
,stimulus,canvas.Screen,2_7_1_0,,,,,,response,5713.200000095356,237848.40000009537,237838,237854.7,243567.90000009537,243568.20000004768,2025-02-01T15:26:17.731Z,243592.7,emVzklJhmZ,incremental,jednostavno-test,679df971131ae225e46b4282,participant,hcpib7hgm6mcd33v,,2,click @2,"Što, kurir je razjasnio, kada mora dostaviti?",Kurir je razjasnio kada mora dostaviti paket.,iq,,0,6,ob,ob + ad,interrogative pronouns
,Timer frame,html.Frame,2_7_1,,,,,,,5713.599999952305,237848.29999995232,237838,237854.7,243568.29999995232,243568.29999995232,2025-02-01T15:26:17.731Z,243592.7,emVzklJhmZ,incremental,jednostavno-test,679df971131ae225e46b4282,participant,hcpib7hgm6mcd33v,,,,"Što, kurir je razjasnio, kada mora dostaviti?",Kurir je razjasnio kada mora dostaviti paket.,iq,,0,6,ob,ob + ad,interrogative pronouns
,inter-stimulus,canvas.Screen,2_7_2,,,,,,response,2258.5999999523046,243568.29999995232,243576.1,243592.7,245851.29999995232,245851.79999995232,2025-02-01T15:26:20.014Z,245861.3,emVzklJhmZ,incremental,jednostavno-test,679df971131ae225e46b4282,participant,hcpib7hgm6mcd33v,,,mousedown,"Što, kurir je razjasnio, kada mora dostaviti?",Kurir je razjasnio kada mora dostaviti paket.,iq,,0,6,ob,ob + ad,interrogative pronouns
,Sequence,flow.Sequence,2_7,,,,,,completion,11065.799999952316,234778.90000009537,234768.8,234785.5,245851.29999995232,245852,2025-02-01T15:26:20.015Z,245861.3,emVzklJhmZ,incremental,jednostavno-test,679df971131ae225e46b4282,participant,hcpib7hgm6mcd33v,,,,"Što, kurir je razjasnio, kada mora dostaviti?",Kurir je razjasnio kada mora dostaviti paket.,iq,,0,6,ob,ob + ad,interrogative pronouns
,context,canvas.Screen,2_8_0_0,,,,,,response,1656.7000000000116,245852.09999990463,245844.5,245861.3,247518,247518.20000004768,2025-02-01T15:26:21.681Z,247529.3,emVzklJhmZ,incremental,jednostavno-test,679df971131ae225e46b4282,participant,hcpib7hgm6mcd33v,,,click,Kad Martin ne dolazi na posao?,Martin sutra ne dolazi na posao.,neg,,,21,ad_time,ad_time + ad_place,interrogative pronouns
,Timer frame,html.Frame,2_8_0,,,,,,,1656.999999952328,245852,245844.5,245861.3,247518.29999995232,247518.40000009537,2025-02-01T15:26:21.681Z,247529.3,emVzklJhmZ,incremental,jednostavno-test,679df971131ae225e46b4282,participant,hcpib7hgm6mcd33v,,,,Kad Martin ne dolazi na posao?,Martin sutra ne dolazi na posao.,neg,,,21,ad_time,ad_time + ad_place,interrogative pronouns
,stimulus,canvas.Screen,2_8_1_0,,,,,,response,3384.7000000000116,247518.5,247512.6,247529.3,250914,250914.29999995232,2025-02-01T15:26:25.077Z,250915.5,emVzklJhmZ,incremental,jednostavno-test,679df971131ae225e46b4282,participant,hcpib7hgm6mcd33v,,7,click @7,Kad Martin ne dolazi na posao?,Martin sutra ne dolazi na posao.,neg,,,21,ad_time,ad_time + ad_place,interrogative pronouns
,Timer frame,html.Frame,2_8_1,,,,,,,3384.999999952328,247518.40000009537,247512.6,247529.3,250914.29999995232,250914.5,2025-02-01T15:26:25.077Z,250915.5,emVzklJhmZ,incremental,jednostavno-test,679df971131ae225e46b4282,participant,hcpib7hgm6mcd33v,,,,Kad Martin ne dolazi na posao?,Martin sutra ne dolazi na posao.,neg,,,21,ad_time,ad_time + ad_place,interrogative pronouns
,inter-stimulus,canvas.Screen,2_8_2,,,,,,response,2959.7000000476837,250914.5,250898.7,250915.5,253875.20000004768,253875.59999990463,2025-02-01T15:26:28.038Z,253901.3,emVzklJhmZ,incremental,jednostavno-test,679df971131ae225e46b4282,participant,hcpib7hgm6mcd33v,,,mousedown,Kad Martin ne dolazi na posao?,Martin sutra ne dolazi na posao.,neg,,,21,ad_time,ad_time + ad_place,interrogative pronouns
,Sequence,flow.Sequence,2_8,,,,,,completion,8013.900000047695,245852,245844.5,245861.3,253875.20000004768,253875.79999995232,2025-02-01T15:26:28.038Z,253901.3,emVzklJhmZ,incremental,jednostavno-test,679df971131ae225e46b4282,participant,hcpib7hgm6mcd33v,,,,Kad Martin ne dolazi na posao?,Martin sutra ne dolazi na posao.,neg,,,21,ad_time,ad_time + ad_place,interrogative pronouns
,context,canvas.Screen,2_9_0_0,,,,,,response,4200.799999904644,253876,253884.53,253901.3,258102.09999990463,258102.40000009537,2025-02-01T15:26:32.265Z,258121.3,emVzklJhmZ,incremental,jednostavno-test,679df971131ae225e46b4282,participant,hcpib7hgm6mcd33v,,,click,Naručio sam to jelo koje sam pitao tko je jeo u restoranu.,Pitao sam tko je jeo pleskavicu u restoranu.,iq,0,0,11,ob,sub + ob,relative pronouns
,Timer frame,html.Frame,2_9_0,,,,,,,4201.100000095379,253875.79999995232,253884.53,253901.3,258102.40000009537,258102.40000009537,2025-02-01T15:26:32.265Z,258121.3,emVzklJhmZ,incremental,jednostavno-test,679df971131ae225e46b4282,participant,hcpib7hgm6mcd33v,,,,Naručio sam to jelo koje sam pitao tko je jeo u restoranu.,Pitao sam tko je jeo pleskavicu u restoranu.,iq,0,0,11,ob,sub + ob,relative pronouns
,stimulus,canvas.Screen,2_9_1_0,,,,,,response,7356.700000000012,258102.59999990463,258104.7,258121.3,265478,265478.2999999523,2025-02-01T15:26:39.641Z,265494.1,emVzklJhmZ,incremental,jednostavno-test,679df971131ae225e46b4282,participant,hcpib7hgm6mcd33v,,7,click @7,Naručio sam to jelo koje sam pitao tko je jeo u restoranu.,Pitao sam tko je jeo pleskavicu u restoranu.,iq,0,0,11,ob,sub + ob,relative pronouns
,Timer frame,html.Frame,2_9_1,,,,,,,7357.100000095379,258102.59999990463,258104.7,258121.3,265478.40000009537,265478.40000009537,2025-02-01T15:26:39.641Z,265494.1,emVzklJhmZ,incremental,jednostavno-test,679df971131ae225e46b4282,participant,hcpib7hgm6mcd33v,,,,Naručio sam to jelo koje sam pitao tko je jeo u restoranu.,Pitao sam tko je jeo pleskavicu u restoranu.,iq,0,0,11,ob,sub + ob,relative pronouns
,inter-stimulus,canvas.Screen,2_9_2,,,,,,response,3523.1999999523396,265478.40000009537,265478.664,265494.1,269017.2999999523,269017.7999999523,2025-02-01T15:26:43.180Z,269047,emVzklJhmZ,incremental,jednostavno-test,679df971131ae225e46b4282,participant,hcpib7hgm6mcd33v,,,mousedown,Naručio sam to jelo koje sam pitao tko je jeo u restoranu.,Pitao sam tko je jeo pleskavicu u restoranu.,iq,0,0,11,ob,sub + ob,relative pronouns
,Sequence,flow.Sequence,2_9,,,,,,completion,15115.999999952328,253875.79999995232,253884.53,253901.3,269017.2999999523,269017.90000009537,2025-02-01T15:26:43.181Z,269047,emVzklJhmZ,incremental,jednostavno-test,679df971131ae225e46b4282,participant,hcpib7hgm6mcd33v,,,,Naručio sam to jelo koje sam pitao tko je jeo u restoranu.,Pitao sam tko je jeo pleskavicu u restoranu.,iq,0,0,11,ob,sub + ob,relative pronouns
,context,canvas.Screen,2_10_0_0,,,,,,response,3283.0999999046326,269018.09999990463,269030.4,269047,272330.09999990463,272330.40000009537,2025-02-01T15:26:46.493Z,272349.7,emVzklJhmZ,incremental,jednostavno-test,679df971131ae225e46b4282,participant,hcpib7hgm6mcd33v,,,click,U hladnjaku je bio sladoled koji je otac pitao za koga da kupi u trgovini.,Otac je pitao za koga da kupi sladoled u trgovini.,iq,0,0,15,ob_indir,ob_dir + ob_indir,relative pronouns
,Timer frame,html.Frame,2_10_0,,,,,,,3283.4000000953674,269018,269030.4,269047,272330.40000009537,272330.40000009537,2025-02-01T15:26:46.493Z,272349.7,emVzklJhmZ,incremental,jednostavno-test,679df971131ae225e46b4282,participant,hcpib7hgm6mcd33v,,,,U hladnjaku je bio sladoled koji je otac pitao za koga da kupi u trgovini.,Otac je pitao za koga da kupi sladoled u trgovini.,iq,0,0,15,ob_indir,ob_dir + ob_indir,relative pronouns
,stimulus,canvas.Screen,2_10_1_0,,,,,,response,4122.299999999988,272330.59999990463,272333.066,272349.7,276472,276472.40000009537,2025-02-01T15:26:50.635Z,276503.2,emVzklJhmZ,incremental,jednostavno-test,679df971131ae225e46b4282,participant,hcpib7hgm6mcd33v,,7,click @7,U hladnjaku je bio sladoled koji je otac pitao za koga da kupi u trgovini.,Otac je pitao za koga da kupi sladoled u trgovini.,iq,0,0,15,ob_indir,ob_dir + ob_indir,relative pronouns
,Timer frame,html.Frame,2_10_1,,,,,,,4122.799999999988,272330.40000009537,272333.066,272349.7,276472.5,276472.5,2025-02-01T15:26:50.635Z,276503.2,emVzklJhmZ,incremental,jednostavno-test,679df971131ae225e46b4282,participant,hcpib7hgm6mcd33v,,,,U hladnjaku je bio sladoled koji je otac pitao za koga da kupi u trgovini.,Otac je pitao za koga da kupi sladoled u trgovini.,iq,0,0,15,ob_indir,ob_dir + ob_indir,relative pronouns
,inter-stimulus,canvas.Screen,2_10_2,,,,,,response,1135.2000000953558,276472.59999990463,276486.498,276503.2,277638.40000009537,277638.7999999523,2025-02-01T15:26:51.801Z,277654.1,emVzklJhmZ,incremental,jednostavno-test,679df971131ae225e46b4282,participant,hcpib7hgm6mcd33v,,,mousedown,U hladnjaku je bio sladoled koji je otac pitao za koga da kupi u trgovini.,Otac je pitao za koga da kupi sladoled u trgovini.,iq,0,0,15,ob_indir,ob_dir + ob_indir,relative pronouns
,Sequence,flow.Sequence,2_10,,,,,,completion,8591.400000095367,269017.90000009537,269030.4,269047,277638.40000009537,277638.90000009537,2025-02-01T15:26:51.802Z,277654.1,emVzklJhmZ,incremental,jednostavno-test,679df971131ae225e46b4282,participant,hcpib7hgm6mcd33v,,,,U hladnjaku je bio sladoled koji je otac pitao za koga da kupi u trgovini.,Otac je pitao za koga da kupi sladoled u trgovini.,iq,0,0,15,ob_indir,ob_dir + ob_indir,relative pronouns
,context,canvas.Screen,2_11_0_0,,,,,,response,4143.100000047707,277639.09999990463,277637.5,277654.1,281797.2000000477,281797.40000009537,2025-02-01T15:26:55.960Z,281824.2,emVzklJhmZ,incremental,jednostavno-test,679df971131ae225e46b4282,participant,hcpib7hgm6mcd33v,,,click,Nego volim pivo više vino.,Više volim vino nego pivo.,nf,,,56,filler,filler,filler
,Timer frame,html.Frame,2_11_0,,,,,,,4143.400000000023,277639,277637.5,277654.1,281797.5,281797.5,2025-02-01T15:26:55.960Z,281824.2,emVzklJhmZ,incremental,jednostavno-test,679df971131ae225e46b4282,participant,hcpib7hgm6mcd33v,,,,Nego volim pivo više vino.,Više volim vino nego pivo.,nf,,,56,filler,filler,filler
,stimulus,canvas.Screen,2_11_1_0,,,,,,response,3608.899999904621,281797.59999990463,281807.5,281824.2,285433.09999990463,285433.40000009537,2025-02-01T15:26:59.596Z,285443.9,emVzklJhmZ,incremental,jednostavno-test,679df971131ae225e46b4282,participant,hcpib7hgm6mcd33v,,1,click @1,Nego volim pivo više vino.,Više volim vino nego pivo.,nf,,,56,filler,filler,filler
,Timer frame,html.Frame,2_11_1,,,,,,,3609.200000095356,281797.5,281807.5,281824.2,285433.40000009537,285433.5,2025-02-01T15:26:59.596Z,285443.9,emVzklJhmZ,incremental,jednostavno-test,679df971131ae225e46b4282,participant,hcpib7hgm6mcd33v,,,,Nego volim pivo više vino.,Više volim vino nego pivo.,nf,,,56,filler,filler,filler
,inter-stimulus,canvas.Screen,2_11_2,,,,,,response,2201.500000095344,285433.59999990463,285427.166,285443.9,287645.40000009537,287646.09999990463,2025-02-01T15:27:01.809Z,287662.4,emVzklJhmZ,incremental,jednostavno-test,679df971131ae225e46b4282,participant,hcpib7hgm6mcd33v,,,mousedown,Nego volim pivo više vino.,Više volim vino nego pivo.,nf,,,56,filler,filler,filler
,Sequence,flow.Sequence,2_11,,,,,,completion,9991.30000009539,277639,277637.5,277654.1,287645.40000009537,287646.2000000477,2025-02-01T15:27:01.809Z,287662.4,emVzklJhmZ,incremental,jednostavno-test,679df971131ae225e46b4282,participant,hcpib7hgm6mcd33v,,,,Nego volim pivo više vino.,Više volim vino nego pivo.,nf,,,56,filler,filler,filler
,context,canvas.Screen,2_12_0_0,,,,,,response,4342.699999904609,287646.2999999523,287645.6,287662.4,292005.09999990463,292005.40000009537,2025-02-01T15:27:06.168Z,292032.6,emVzklJhmZ,incremental,jednostavno-test,679df971131ae225e46b4282,participant,hcpib7hgm6mcd33v,,,click,Što sam izčitao od te Necronomiconu?,Našao sam nekakav Necronomicon na tavanu.,nf,,,53,filler,filler,filler
,Timer frame,html.Frame,2_12_0,,,,,,,4343.099999999977,287646.2000000477,287645.6,287662.4,292005.5,292005.5,2025-02-01T15:27:06.168Z,292032.6,emVzklJhmZ,incremental,jednostavno-test,679df971131ae225e46b4282,participant,hcpib7hgm6mcd33v,,,,Što sam izčitao od te Necronomiconu?,Našao sam nekakav Necronomicon na tavanu.,nf,,,53,filler,filler,filler
,stimulus,canvas.Screen,2_12_1_0,,,,,,response,4305.600000047707,292005.59999990463,292015.9,292032.6,296338.2000000477,296338.5,2025-02-01T15:27:10.501Z,296352.9,emVzklJhmZ,incremental,jednostavno-test,679df971131ae225e46b4282,participant,hcpib7hgm6mcd33v,,1,click @1,Što sam izčitao od te Necronomiconu?,Našao sam nekakav Necronomicon na tavanu.,nf,,,53,filler,filler,filler
,Timer frame,html.Frame,2_12_1,,,,,,,4305.999999904656,292005.5,292015.9,292032.6,296338.59999990463,296338.59999990463,2025-02-01T15:27:10.501Z,296352.9,emVzklJhmZ,incremental,jednostavno-test,679df971131ae225e46b4282,participant,hcpib7hgm6mcd33v,,,,Što sam izčitao od te Necronomiconu?,Našao sam nekakav Necronomicon na tavanu.,nf,,,53,filler,filler,filler
,inter-stimulus,canvas.Screen,2_12_2,,,,,,response,1173.899999952293,296338.59999990463,296336.2,296352.9,297526.7999999523,297527.2999999523,2025-02-01T15:27:11.690Z,297537.2,emVzklJhmZ,incremental,jednostavno-test,679df971131ae225e46b4282,participant,hcpib7hgm6mcd33v,,,mousedown,Što sam izčitao od te Necronomiconu?,Našao sam nekakav Necronomicon na tavanu.,nf,,,53,filler,filler,filler
,Sequence,flow.Sequence,2_12,,,,,,completion,9864.399999952293,287646.2000000477,287645.6,287662.4,297526.7999999523,297527.40000009537,2025-02-01T15:27:11.690Z,297537.2,emVzklJhmZ,incremental,jednostavno-test,679df971131ae225e46b4282,participant,hcpib7hgm6mcd33v,,,,Što sam izčitao od te Necronomiconu?,Našao sam nekakav Necronomicon na tavanu.,nf,,,53,filler,filler,filler
,context,canvas.Screen,2_13_0_0,,,,,,response,3530.899999904621,297527.59999990463,297520.5,297537.2,301068.09999990463,301068.5,2025-02-01T15:27:15.231Z,301073.4,emVzklJhmZ,incremental,jednostavno-test,679df971131ae225e46b4282,participant,hcpib7hgm6mcd33v,,,click,Što je bilo vrlo lako?,Pronaći pravo stajalište bilo je vrlo lako.,gf,,,50,filler,filler,filler
,Timer frame,html.Frame,2_13_0,,,,,,,3531.399999904621,297527.40000009537,297520.5,297537.2,301068.59999990463,301068.59999990463,2025-02-01T15:27:15.231Z,301073.4,emVzklJhmZ,incremental,jednostavno-test,679df971131ae225e46b4282,participant,hcpib7hgm6mcd33v,,,,Što je bilo vrlo lako?,Pronaći pravo stajalište bilo je vrlo lako.,gf,,,50,filler,filler,filler
,stimulus,canvas.Screen,2_13_1_0,,,,,,response,1835.8000000476604,301068.7000000477,301056.7,301073.4,302909.2000000477,302909.59999990463,2025-02-01T15:27:17.072Z,302941.6,emVzklJhmZ,incremental,jednostavno-test,679df971131ae225e46b4282,participant,hcpib7hgm6mcd33v,,7,click @7,Što je bilo vrlo lako?,Pronaći pravo stajalište bilo je vrlo lako.,gf,,,50,filler,filler,filler
,Timer frame,html.Frame,2_13_1,,,,,,,1836.1999999046093,301068.59999990463,301056.7,301073.4,302909.59999990463,302909.7000000477,2025-02-01T15:27:17.072Z,302941.6,emVzklJhmZ,incremental,jednostavno-test,679df971131ae225e46b4282,participant,hcpib7hgm6mcd33v,,,,Što je bilo vrlo lako?,Pronaći pravo stajalište bilo je vrlo lako.,gf,,,50,filler,filler,filler
,inter-stimulus,canvas.Screen,2_13_2,,,,,,response,1919.9000000000233,302909.7000000477,302924.9,302941.6,304861.5,304862,2025-02-01T15:27:19.025Z,304876.5,emVzklJhmZ,incremental,jednostavno-test,679df971131ae225e46b4282,participant,hcpib7hgm6mcd33v,,,mousedown,Što je bilo vrlo lako?,Pronaći pravo stajalište bilo je vrlo lako.,gf,,,50,filler,filler,filler
,Sequence,flow.Sequence,2_13,,,,,,completion,7324.299999999988,297527.40000009537,297520.5,297537.2,304861.5,304862,2025-02-01T15:27:19.025Z,304876.5,emVzklJhmZ,incremental,jednostavno-test,679df971131ae225e46b4282,participant,hcpib7hgm6mcd33v,,,,Što je bilo vrlo lako?,Pronaći pravo stajalište bilo je vrlo lako.,gf,,,50,filler,filler,filler
,context,canvas.Screen,2_14_0_0,,,,,,response,2541.7000000476837,304862.2000000477,304859.9,304876.5,307418.2000000477,307418.5,2025-02-01T15:27:21.581Z,307445.3,emVzklJhmZ,incremental,jednostavno-test,679df971131ae225e46b4282,participant,hcpib7hgm6mcd33v,,,click,Morat ću raditi u tim uvjetima u kojim baš sam pitao kako se ponašati.,Pitao sam kako se ponašati u takvim uvjetima.,iq,0,0,18,ad,ob + ad,relative pronouns
,Timer frame,html.Frame,2_14_0,,,,,,,2542.0999999046326,304862.09999990463,304859.9,304876.5,307418.59999990463,307418.59999990463,2025-02-01T15:27:21.581Z,307445.3,emVzklJhmZ,incremental,jednostavno-test,679df971131ae225e46b4282,participant,hcpib7hgm6mcd33v,,,,Morat ću raditi u tim uvjetima u kojim baš sam pitao kako se ponašati.,Pitao sam kako se ponašati u takvim uvjetima.,iq,0,0,18,ad,ob + ad,relative pronouns
,stimulus,canvas.Screen,2_14_1_0,,,,,,response,5078.900000047695,307418.7000000477,307428.6,307445.3,312524.2000000477,312524.5,2025-02-01T15:27:26.687Z,312549.5,emVzklJhmZ,incremental,jednostavno-test,679df971131ae225e46b4282,participant,hcpib7hgm6mcd33v,,6,click @6,Morat ću raditi u tim uvjetima u kojim baš sam pitao kako se ponašati.,Pitao sam kako se ponašati u takvim uvjetima.,iq,0,0,18,ad,ob + ad,relative pronouns
,Timer frame,html.Frame,2_14_1,,,,,,,5079.299999904644,307418.59999990463,307428.6,307445.3,312524.59999990463,312524.59999990463,2025-02-01T15:27:26.687Z,312549.5,emVzklJhmZ,incremental,jednostavno-test,679df971131ae225e46b4282,participant,hcpib7hgm6mcd33v,,,,Morat ću raditi u tim uvjetima u kojim baš sam pitao kako se ponašati.,Pitao sam kako se ponašati u takvim uvjetima.,iq,0,0,18,ad,ob + ad,relative pronouns
,inter-stimulus,canvas.Screen,2_14_2,,,,,,response,2408,312524.7000000477,312532.8,312549.5,314957.5,314958,2025-02-01T15:27:29.121Z,314968.2,emVzklJhmZ,incremental,jednostavno-test,679df971131ae225e46b4282,participant,hcpib7hgm6mcd33v,,,mousedown,Morat ću raditi u tim uvjetima u kojim baš sam pitao kako se ponašati.,Pitao sam kako se ponašati u takvim uvjetima.,iq,0,0,18,ad,ob + ad,relative pronouns
,Sequence,flow.Sequence,2_14,,,,,,completion,10081,304862.09999990463,304859.9,304876.5,314957.5,314958.09999990463,2025-02-01T15:27:29.121Z,314968.2,emVzklJhmZ,incremental,jednostavno-test,679df971131ae225e46b4282,participant,hcpib7hgm6mcd33v,,,,Morat ću raditi u tim uvjetima u kojim baš sam pitao kako se ponašati.,Pitao sam kako se ponašati u takvim uvjetima.,iq,0,0,18,ad,ob + ad,relative pronouns
,context,canvas.Screen,2_15_0_0,,,,,,response,2275.0999999523046,314958.2999999523,314951.5,314968.2,317243.2999999523,317243.5,2025-02-01T15:27:31.406Z,317253.4,emVzklJhmZ,incremental,jednostavno-test,679df971131ae225e46b4282,participant,hcpib7hgm6mcd33v,,,click,"Tko, tvoja prijateljica pitala je, gdje radi?",Tvoja prijateljica pitala je gdje radi moj brat.,iq,0,0,2,sub,sub + ob,interrogative pronouns
,Timer frame,html.Frame,2_15_0,,,,,,,2275.399999904621,314958.2000000477,314951.5,314968.2,317243.59999990463,317243.59999990463,2025-02-01T15:27:31.406Z,317253.4,emVzklJhmZ,incremental,jednostavno-test,679df971131ae225e46b4282,participant,hcpib7hgm6mcd33v,,,,"Tko, tvoja prijateljica pitala je, gdje radi?",Tvoja prijateljica pitala je gdje radi moj brat.,iq,0,0,2,sub,sub + ob,interrogative pronouns
,stimulus,canvas.Screen,2_15_1_0,,,,,,response,5707.80000004766,317243.7000000477,317236.7,317253.4,322961.2000000477,322961.7999999523,2025-02-01T15:27:37.124Z,322991.4,emVzklJhmZ,incremental,jednostavno-test,679df971131ae225e46b4282,participant,hcpib7hgm6mcd33v,,3,click @3,"Tko, tvoja prijateljica pitala je, gdje radi?",Tvoja prijateljica pitala je gdje radi moj brat.,iq,0,0,2,sub,sub + ob,interrogative pronouns
,Timer frame,html.Frame,2_15_1,,,,,,,5708.399999952293,317243.7000000477,317236.7,317253.4,322961.7999999523,322961.90000009537,2025-02-01T15:27:37.124Z,322991.4,emVzklJhmZ,incremental,jednostavno-test,679df971131ae225e46b4282,participant,hcpib7hgm6mcd33v,,,,"Tko, tvoja prijateljica pitala je, gdje radi?",Tvoja prijateljica pitala je gdje radi moj brat.,iq,0,0,2,sub,sub + ob,interrogative pronouns
,inter-stimulus,canvas.Screen,2_15_2,,,,,,response,2692.0999999999767,322961.90000009537,322974.8,322991.4,325683.5,325684,2025-02-01T15:27:39.847Z,325693.6,emVzklJhmZ,incremental,jednostavno-test,679df971131ae225e46b4282,participant,hcpib7hgm6mcd33v,,,mousedown,"Tko, tvoja prijateljica pitala je, gdje radi?",Tvoja prijateljica pitala je gdje radi moj brat.,iq,0,0,2,sub,sub + ob,interrogative pronouns
,Sequence,flow.Sequence,2_15,,,,,,completion,10715.299999999988,314958.2000000477,314951.5,314968.2,325683.5,325684,2025-02-01T15:27:39.847Z,325693.6,emVzklJhmZ,incremental,jednostavno-test,679df971131ae225e46b4282,participant,hcpib7hgm6mcd33v,,,,"Tko, tvoja prijateljica pitala je, gdje radi?",Tvoja prijateljica pitala je gdje radi moj brat.,iq,0,0,2,sub,sub + ob,interrogative pronouns
,context,canvas.Screen,2_16_0_0,,,,,,response,2453.6999999523396,325684.2000000477,325677,325693.6,328147.2999999523,328147.59999990463,2025-02-01T15:27:42.310Z,328162.4,emVzklJhmZ,incremental,jednostavno-test,679df971131ae225e46b4282,participant,hcpib7hgm6mcd33v,,,click,Kako je Ivan požalio što se ponašao na zabavi?,Ivan je požalio što se ponašao drsko na zabavi.,fac,0,0,32,ad_mode,ob_dir + ad_mode + ad_measure,interrogative pronouns
,Timer frame,html.Frame,2_16_0,,,,,,,2454.100000047707,325684.2000000477,325677,325693.6,328147.7000000477,328147.7000000477,2025-02-01T15:27:42.310Z,328162.4,emVzklJhmZ,incremental,jednostavno-test,679df971131ae225e46b4282,participant,hcpib7hgm6mcd33v,,,,Kako je Ivan požalio što se ponašao na zabavi?,Ivan je požalio što se ponašao drsko na zabavi.,fac,0,0,32,ad_mode,ob_dir + ad_mode + ad_measure,interrogative pronouns
,stimulus,canvas.Screen,2_16_1_0,,,,,,response,4861.80000004766,328147.7999999523,328145.7,328162.4,333024.2000000477,333024.59999990463,2025-02-01T15:27:47.187Z,333033,emVzklJhmZ,incremental,jednostavno-test,679df971131ae225e46b4282,participant,hcpib7hgm6mcd33v,,2,click @2,Kako je Ivan požalio što se ponašao na zabavi?,Ivan je požalio što se ponašao drsko na zabavi.,fac,0,0,32,ad_mode,ob_dir + ad_mode + ad_measure,interrogative pronouns
,Timer frame,html.Frame,2_16_1,,,,,,,4862.30000004766,328147.7000000477,328145.7,328162.4,333024.7000000477,333024.7999999523,2025-02-01T15:27:47.187Z,333033,emVzklJhmZ,incremental,jednostavno-test,679df971131ae225e46b4282,participant,hcpib7hgm6mcd33v,,,,Kako je Ivan požalio što se ponašao na zabavi?,Ivan je požalio što se ponašao drsko na zabavi.,fac,0,0,32,ad_mode,ob_dir + ad_mode + ad_measure,interrogative pronouns
,inter-stimulus,canvas.Screen,2_16_2,,,,,,response,1201.7000000476837,333024.7999999523,333017.094,333033,334234.7000000477,334235.2000000477,2025-02-01T15:27:48.398Z,334250.7,emVzklJhmZ,incremental,jednostavno-test,679df971131ae225e46b4282,participant,hcpib7hgm6mcd33v,,,mousedown,Kako je Ivan požalio što se ponašao na zabavi?,Ivan je požalio što se ponašao drsko na zabavi.,fac,0,0,32,ad_mode,ob_dir + ad_mode + ad_measure,interrogative pronouns
,Sequence,flow.Sequence,2_16,,,,,,completion,8541.100000047707,325684.09999990463,325677,325693.6,334234.7000000477,334235.2999999523,2025-02-01T15:27:48.398Z,334250.7,emVzklJhmZ,incremental,jednostavno-test,679df971131ae225e46b4282,participant,hcpib7hgm6mcd33v,,,,Kako je Ivan požalio što se ponašao na zabavi?,Ivan je požalio što se ponašao drsko na zabavi.,fac,0,0,32,ad_mode,ob_dir + ad_mode + ad_measure,interrogative pronouns
,context,canvas.Screen,2_17_0_0,,,,,,response,2112.5999999523046,334235.5,334234.03,334250.7,336363.2999999523,336363.7000000477,2025-02-01T15:27:50.526Z,336385.8,emVzklJhmZ,incremental,jednostavno-test,679df971131ae225e46b4282,participant,hcpib7hgm6mcd33v,,,click,Tražim ove slušalice koje sam pitao Antona gdje je ostavio.,Pitao sam Antona gdje je ostavio moje slušalice.,iq,0,0,16,ob,ob + ad,relative pronouns
,Timer frame,html.Frame,2_17_0,,,,,,,2113.000000047672,334235.2999999523,334234.03,334250.7,336363.7000000477,336363.7999999523,2025-02-01T15:27:50.526Z,336385.8,emVzklJhmZ,incremental,jednostavno-test,679df971131ae225e46b4282,participant,hcpib7hgm6mcd33v,,,,Tražim ove slušalice koje sam pitao Antona gdje je ostavio.,Pitao sam Antona gdje je ostavio moje slušalice.,iq,0,0,16,ob,ob + ad,relative pronouns
,stimulus,canvas.Screen,2_17_1_0,,,,,,response,3636.499999952328,336363.7999999523,336369.166,336385.8,340022.2999999523,340022.7000000477,2025-02-01T15:27:54.185Z,340038.8,emVzklJhmZ,incremental,jednostavno-test,679df971131ae225e46b4282,participant,hcpib7hgm6mcd33v,,7,click @7,Tražim ove slušalice koje sam pitao Antona gdje je ostavio.,Pitao sam Antona gdje je ostavio moje slušalice.,iq,0,0,16,ob,ob + ad,relative pronouns
,Timer frame,html.Frame,2_17_1,,,,,,,3636.999999952328,336363.7999999523,336369.166,336385.8,340022.7999999523,340022.7999999523,2025-02-01T15:27:54.185Z,340038.8,emVzklJhmZ,incremental,jednostavno-test,679df971131ae225e46b4282,participant,hcpib7hgm6mcd33v,,,,Tražim ove slušalice koje sam pitao Antona gdje je ostavio.,Pitao sam Antona gdje je ostavio moje slušalice.,iq,0,0,16,ob,ob + ad,relative pronouns
,inter-stimulus,canvas.Screen,2_17_2,,,,,,response,1219.7999999046442,340022.90000009537,340022.1,340038.8,341258.59999990463,341259.09999990463,2025-02-01T15:27:55.422Z,341273.1,emVzklJhmZ,incremental,jednostavno-test,679df971131ae225e46b4282,participant,hcpib7hgm6mcd33v,,,mousedown,Tražim ove slušalice koje sam pitao Antona gdje je ostavio.,Pitao sam Antona gdje je ostavio moje slušalice.,iq,0,0,16,ob,ob + ad,relative pronouns
,Sequence,flow.Sequence,2_17,,,,,,completion,7007.899999904621,334235.2999999523,334234.03,334250.7,341258.59999990463,341259.2000000477,2025-02-01T15:27:55.422Z,341273.1,emVzklJhmZ,incremental,jednostavno-test,679df971131ae225e46b4282,participant,hcpib7hgm6mcd33v,,,,Tražim ove slušalice koje sam pitao Antona gdje je ostavio.,Pitao sam Antona gdje je ostavio moje slušalice.,iq,0,0,16,ob,ob + ad,relative pronouns
,context,canvas.Screen,2_18_0_0,,,,,,response,2108.1999999523396,341259.40000009537,341256.5,341273.1,343381.2999999523,343381.59999990463,2025-02-01T15:27:57.544Z,343408.2,emVzklJhmZ,incremental,jednostavno-test,679df971131ae225e46b4282,participant,hcpib7hgm6mcd33v,,,click,Pronašao sam tu stvar koju znam da je Marina izgubila.,Znam da je Marina izgubila ključeve.,fac,0,,41,ob,ob + ob,non-interrogative component
,Timer frame,html.Frame,2_18_0,,,,,,,2108.499999904656,341259.2999999523,341256.5,341273.1,343381.59999990463,343381.7000000477,2025-02-01T15:27:57.544Z,343408.2,emVzklJhmZ,incremental,jednostavno-test,679df971131ae225e46b4282,participant,hcpib7hgm6mcd33v,,,,Pronašao sam tu stvar koju znam da je Marina izgubila.,Znam da je Marina izgubila ključeve.,fac,0,,41,ob,ob + ob,non-interrogative component
,stimulus,canvas.Screen,2_18_1_0,,,,,,response,3615.500000047672,343381.90000009537,343391.6,343408.2,347023.7000000477,347024,2025-02-01T15:28:01.187Z,347027.9,emVzklJhmZ,incremental,jednostavno-test,679df971131ae225e46b4282,participant,hcpib7hgm6mcd33v,,7,click @7,Pronašao sam tu stvar koju znam da je Marina izgubila.,Znam da je Marina izgubila ključeve.,fac,0,,41,ob,ob + ob,non-interrogative component
,Timer frame,html.Frame,2_18_1,,,,,,,3615.7999999999884,343381.7000000477,343391.6,343408.2,347024,347024,2025-02-01T15:28:01.187Z,347027.9,emVzklJhmZ,incremental,jednostavno-test,679df971131ae225e46b4282,participant,hcpib7hgm6mcd33v,,,,Pronašao sam tu stvar koju znam da je Marina izgubila.,Znam da je Marina izgubila ključeve.,fac,0,,41,ob,ob + ob,non-interrogative component
,inter-stimulus,canvas.Screen,2_18_2,,,,,,response,1003.8000000476604,347024.09999990463,347011.232,347027.9,348031.7000000477,348032.09999990463,2025-02-01T15:28:02.195Z,348045.4,emVzklJhmZ,incremental,jednostavno-test,679df971131ae225e46b4282,participant,hcpib7hgm6mcd33v,,,mousedown,Pronašao sam tu stvar koju znam da je Marina izgubila.,Znam da je Marina izgubila ključeve.,fac,0,,41,ob,ob + ob,non-interrogative component
,Sequence,flow.Sequence,2_18,,,,,,completion,6758.600000047707,341259.2000000477,341256.5,341273.1,348031.7000000477,348032.2000000477,2025-02-01T15:28:02.195Z,348045.4,emVzklJhmZ,incremental,jednostavno-test,679df971131ae225e46b4282,participant,hcpib7hgm6mcd33v,,,,Pronašao sam tu stvar koju znam da je Marina izgubila.,Znam da je Marina izgubila ključeve.,fac,0,,41,ob,ob + ob,non-interrogative component
,context,canvas.Screen,2_19_0_0,,,,,,response,2578.899999952293,348032.2999999523,348028.7,348045.4,350624.2999999523,350624.7000000477,2025-02-01T15:28:04.787Z,350630.8,emVzklJhmZ,incremental,jednostavno-test,679df971131ae225e46b4282,participant,hcpib7hgm6mcd33v,,,click,Gdje moj bogati ujak drži svoj novac?,Moj bogati ujak drži svoj novac u švicarskoj banci.,gf,,,47,filler,filler,filler
,Timer frame,html.Frame,2_19_0,,,,,,,2579.3000000476604,348032.2000000477,348028.7,348045.4,350624.7000000477,350624.7999999523,2025-02-01T15:28:04.787Z,350630.8,emVzklJhmZ,incremental,jednostavno-test,679df971131ae225e46b4282,participant,hcpib7hgm6mcd33v,,,,Gdje moj bogati ujak drži svoj novac?,Moj bogati ujak drži svoj novac u švicarskoj banci.,gf,,,47,filler,filler,filler
,stimulus,canvas.Screen,2_19_1_0,,,,,,response,1804.499999952328,350624.90000009537,350614.2,350630.8,352435.2999999523,352435.59999990463,2025-02-01T15:28:06.598Z,352465.7,emVzklJhmZ,incremental,jednostavno-test,679df971131ae225e46b4282,participant,hcpib7hgm6mcd33v,,7,click @7,Gdje moj bogati ujak drži svoj novac?,Moj bogati ujak drži svoj novac u švicarskoj banci.,gf,,,47,filler,filler,filler
,Timer frame,html.Frame,2_19_1,,,,,,,1804.9000000476954,350624.7999999523,350614.2,350630.8,352435.7000000477,352435.7000000477,2025-02-01T15:28:06.598Z,352465.7,emVzklJhmZ,incremental,jednostavno-test,679df971131ae225e46b4282,participant,hcpib7hgm6mcd33v,,,,Gdje moj bogati ujak drži svoj novac?,Moj bogati ujak drži svoj novac u švicarskoj banci.,gf,,,47,filler,filler,filler
,inter-stimulus,canvas.Screen,2_19_2,,,,,,response,2538.000000047672,352435.7000000477,352449.1,352465.7,355003.7000000477,355004.40000009537,2025-02-01T15:28:09.167Z,355017.8,emVzklJhmZ,incremental,jednostavno-test,679df971131ae225e46b4282,participant,hcpib7hgm6mcd33v,,,mousedown,Gdje moj bogati ujak drži svoj novac?,Moj bogati ujak drži svoj novac u švicarskoj banci.,gf,,,47,filler,filler,filler
,Sequence,flow.Sequence,2_19,,,,,,completion,6958.30000004766,348032.2000000477,348028.7,348045.4,355003.7000000477,355004.40000009537,2025-02-01T15:28:09.167Z,355017.8,emVzklJhmZ,incremental,jednostavno-test,679df971131ae225e46b4282,participant,hcpib7hgm6mcd33v,,,,Gdje moj bogati ujak drži svoj novac?,Moj bogati ujak drži svoj novac u švicarskoj banci.,gf,,,47,filler,filler,filler
,context,canvas.Screen,2_20_0_0,,,,,,response,2402.600000095379,355004.59999990463,355001.1,355017.8,357420.40000009537,357420.7000000477,2025-02-01T15:28:11.583Z,357453.2,emVzklJhmZ,incremental,jednostavno-test,679df971131ae225e46b4282,participant,hcpib7hgm6mcd33v,,,click,Došao je dan kada Martin ne ide na posao.,Martin sutra ne dolazi na posao.,neg,,,27,ad_time,ad_time + ad_place,relative pronouns
,Timer frame,html.Frame,2_20_0,,,,,,,2402.999999952328,355004.40000009537,355001.1,355017.8,357420.7999999523,357420.7999999523,2025-02-01T15:28:11.583Z,357453.2,emVzklJhmZ,incremental,jednostavno-test,679df971131ae225e46b4282,participant,hcpib7hgm6mcd33v,,,,Došao je dan kada Martin ne ide na posao.,Martin sutra ne dolazi na posao.,neg,,,27,ad_time,ad_time + ad_place,relative pronouns
,stimulus,canvas.Screen,2_20_1_0,,,,,,response,5151.200000095356,357420.90000009537,357436.466,357453.2,362604.40000009537,362604.7000000477,2025-02-01T15:28:16.767Z,362607.3,emVzklJhmZ,incremental,jednostavno-test,679df971131ae225e46b4282,participant,hcpib7hgm6mcd33v,,7,click @7,Došao je dan kada Martin ne ide na posao.,Martin sutra ne dolazi na posao.,neg,,,27,ad_time,ad_time + ad_place,relative pronouns
,Timer frame,html.Frame,2_20_1,,,,,,,5151.599999952305,357420.90000009537,357436.466,357453.2,362604.7999999523,362604.7999999523,2025-02-01T15:28:16.767Z,362607.3,emVzklJhmZ,incremental,jednostavno-test,679df971131ae225e46b4282,participant,hcpib7hgm6mcd33v,,,,Došao je dan kada Martin ne ide na posao.,Martin sutra ne dolazi na posao.,neg,,,27,ad_time,ad_time + ad_place,relative pronouns
,inter-stimulus,canvas.Screen,2_20_2,,,,,,response,2185.4000000476954,362604.7999999523,362590.7,362607.3,364792.7000000477,364793.2000000477,2025-02-01T15:28:18.956Z,364809.2,emVzklJhmZ,incremental,jednostavno-test,679df971131ae225e46b4282,participant,hcpib7hgm6mcd33v,,,mousedown,Došao je dan kada Martin ne ide na posao.,Martin sutra ne dolazi na posao.,neg,,,27,ad_time,ad_time + ad_place,relative pronouns
,Sequence,flow.Sequence,2_20,,,,,,completion,9774.900000047695,355004.40000009537,355001.1,355017.8,364792.7000000477,364793.2999999523,2025-02-01T15:28:18.956Z,364809.2,emVzklJhmZ,incremental,jednostavno-test,679df971131ae225e46b4282,participant,hcpib7hgm6mcd33v,,,,Došao je dan kada Martin ne ide na posao.,Martin sutra ne dolazi na posao.,neg,,,27,ad_time,ad_time + ad_place,relative pronouns
,context,canvas.Screen,2_21_0_0,,,,,,response,3273.2999999999884,364793.5,364792.5,364809.2,368082.5,368082.7000000477,2025-02-01T15:28:22.245Z,368095.2,emVzklJhmZ,incremental,jednostavno-test,679df971131ae225e46b4282,participant,hcpib7hgm6mcd33v,,,click,"Što, učitelj je pitao, kome treba ponovno objasniti?",Učitelj je pitao kome treba ponovno objasniti novo pravilo..,iq,0,36,5,ob_indir,ob_dir + ob_indir,interrogative pronouns
,Timer frame,html.Frame,2_21_0,,,,,,,3273.5999999523046,364793.40000009537,364792.5,364809.2,368082.7999999523,368082.90000009537,2025-02-01T15:28:22.245Z,368095.2,emVzklJhmZ,incremental,jednostavno-test,679df971131ae225e46b4282,participant,hcpib7hgm6mcd33v,,,,"Što, učitelj je pitao, kome treba ponovno objasniti?",Učitelj je pitao kome treba ponovno objasniti novo pravilo..,iq,0,36,5,ob_indir,ob_dir + ob_indir,interrogative pronouns
,stimulus,canvas.Screen,2_21_1_0,,,,,,response,5900.200000095356,368083,368078.6,368095.2,373995.40000009537,373995.7000000477,2025-02-01T15:28:28.158Z,374016.7,emVzklJhmZ,incremental,jednostavno-test,679df971131ae225e46b4282,participant,hcpib7hgm6mcd33v,,4,click @4,"Što, učitelj je pitao, kome treba ponovno objasniti?",Učitelj je pitao kome treba ponovno objasniti novo pravilo..,iq,0,36,5,ob_indir,ob_dir + ob_indir,interrogative pronouns
,Timer frame,html.Frame,2_21_1,,,,,,,5900.500000047672,368083,368078.6,368095.2,373995.7000000477,373995.90000009537,2025-02-01T15:28:28.158Z,374016.7,emVzklJhmZ,incremental,jednostavno-test,679df971131ae225e46b4282,participant,hcpib7hgm6mcd33v,,,,"Što, učitelj je pitao, kome treba ponovno objasniti?",Učitelj je pitao kome treba ponovno objasniti novo pravilo..,iq,0,36,5,ob_indir,ob_dir + ob_indir,interrogative pronouns
,inter-stimulus,canvas.Screen,2_21_2,,,,,,response,2480.200000095356,373995.90000009537,374000.1,374016.7,376496.90000009537,376497.2999999523,2025-02-01T15:28:30.660Z,376502.2,emVzklJhmZ,incremental,jednostavno-test,679df971131ae225e46b4282,participant,hcpib7hgm6mcd33v,,,mousedown,"Što, učitelj je pitao, kome treba ponovno objasniti?",Učitelj je pitao kome treba ponovno objasniti novo pravilo..,iq,0,36,5,ob_indir,ob_dir + ob_indir,interrogative pronouns
,Sequence,flow.Sequence,2_21,,,,,,completion,11687.700000095356,364793.40000009537,364792.5,364809.2,376496.90000009537,376497.5,2025-02-01T15:28:30.660Z,376502.2,emVzklJhmZ,incremental,jednostavno-test,679df971131ae225e46b4282,participant,hcpib7hgm6mcd33v,,,,"Što, učitelj je pitao, kome treba ponovno objasniti?",Učitelj je pitao kome treba ponovno objasniti novo pravilo..,iq,0,36,5,ob_indir,ob_dir + ob_indir,interrogative pronouns
,context,canvas.Screen,2_22_0_0,,,,,,response,3448.2999999999884,376497.7000000477,376485.5,376502.2,379950.5,379950.7999999523,2025-02-01T15:28:34.113Z,379971.7,emVzklJhmZ,incremental,jednostavno-test,679df971131ae225e46b4282,participant,hcpib7hgm6mcd33v,,,click,Ovo je arhipelag na kojem Tvrtko neće moći provesti vikend s obitelji.,Tvrtko neće moći provesti vikend s obitelji na Bahamima.,neg,0,0,28,ad_place,ad_time + ad_place,relative pronouns
,Timer frame,html.Frame,2_22_0,,,,,,,3448.700000095356,376497.5,376485.5,376502.2,379950.90000009537,379950.90000009537,2025-02-01T15:28:34.113Z,379971.7,emVzklJhmZ,incremental,jednostavno-test,679df971131ae225e46b4282,participant,hcpib7hgm6mcd33v,,,,Ovo je arhipelag na kojem Tvrtko neće moći provesti vikend s obitelji.,Tvrtko neće moći provesti vikend s obitelji na Bahamima.,neg,0,0,28,ad_place,ad_time + ad_place,relative pronouns
,stimulus,canvas.Screen,2_22_1_0,,,,,,response,3282.7999999999884,379950.90000009537,379955,379971.7,383254.5,383254.90000009537,2025-02-01T15:28:37.417Z,383274.5,emVzklJhmZ,incremental,jednostavno-test,679df971131ae225e46b4282,participant,hcpib7hgm6mcd33v,,7,click @7,Ovo je arhipelag na kojem Tvrtko neće moći provesti vikend s obitelji.,Tvrtko neće moći provesti vikend s obitelji na Bahamima.,neg,0,0,28,ad_place,ad_time + ad_place,relative pronouns
,Timer frame,html.Frame,2_22_1,,,,,,,3283.200000095356,379950.90000009537,379955,379971.7,383254.90000009537,383255,2025-02-01T15:28:37.418Z,383274.5,emVzklJhmZ,incremental,jednostavno-test,679df971131ae225e46b4282,participant,hcpib7hgm6mcd33v,,,,Ovo je arhipelag na kojem Tvrtko neće moći provesti vikend s obitelji.,Tvrtko neće moći provesti vikend s obitelji na Bahamima.,neg,0,0,28,ad_place,ad_time + ad_place,relative pronouns
,inter-stimulus,canvas.Screen,2_22_2,,,,,,response,1123.2999999523163,383255,383257.8,383274.5,384397.7999999523,384398.2000000477,2025-02-01T15:28:38.561Z,384408.7,emVzklJhmZ,incremental,jednostavno-test,679df971131ae225e46b4282,participant,hcpib7hgm6mcd33v,,,mousedown,Ovo je arhipelag na kojem Tvrtko neće moći provesti vikend s obitelji.,Tvrtko neće moći provesti vikend s obitelji na Bahamima.,neg,0,0,28,ad_place,ad_time + ad_place,relative pronouns
,Sequence,flow.Sequence,2_22,,,,,,completion,7895.599999952305,376497.5,376485.5,376502.2,384397.7999999523,384398.2999999523,2025-02-01T15:28:38.561Z,384408.7,emVzklJhmZ,incremental,jednostavno-test,679df971131ae225e46b4282,participant,hcpib7hgm6mcd33v,,,,Ovo je arhipelag na kojem Tvrtko neće moći provesti vikend s obitelji.,Tvrtko neće moći provesti vikend s obitelji na Bahamima.,neg,0,0,28,ad_place,ad_time + ad_place,relative pronouns
,context,canvas.Screen,2_23_0_0,,,,,,response,5258.799999999988,384398.5,384392.1,384408.7,389667.5,389667.7999999523,2025-02-01T15:28:43.830Z,389679.7,emVzklJhmZ,incremental,jednostavno-test,679df971131ae225e46b4282,participant,hcpib7hgm6mcd33v,,,click,"Što, zanima ih, tko će kupiti za vjenčani dar?",Zanima ih tko će kupiti posuđe za vjenčani dar.,iq,0,0,1,ob,sub + ob,interrogative pronouns
,Timer frame,html.Frame,2_23_0,,,,,,,5259.299999999988,384398.2999999523,384392.1,384408.7,389668,389668,2025-02-01T15:28:43.831Z,389679.7,emVzklJhmZ,incremental,jednostavno-test,679df971131ae225e46b4282,participant,hcpib7hgm6mcd33v,,,,"Što, zanima ih, tko će kupiti za vjenčani dar?",Zanima ih tko će kupiti posuđe za vjenčani dar.,iq,0,0,1,ob,sub + ob,interrogative pronouns
,stimulus,canvas.Screen,2_23_1_0,,,,,,response,5482.899999904621,389668.09999990463,389663,389679.7,395162.59999990463,395162.90000009537,2025-02-01T15:28:49.326Z,395167.6,emVzklJhmZ,incremental,jednostavno-test,679df971131ae225e46b4282,participant,hcpib7hgm6mcd33v,,3,click @3,"Što, zanima ih, tko će kupiti za vjenčani dar?",Zanima ih tko će kupiti posuđe za vjenčani dar.,iq,0,0,1,ob,sub + ob,interrogative pronouns
,Timer frame,html.Frame,2_23_1,,,,,,,5483.299999999988,389668,389663,389679.7,395163,395163,2025-02-01T15:28:49.326Z,395167.6,emVzklJhmZ,incremental,jednostavno-test,679df971131ae225e46b4282,participant,hcpib7hgm6mcd33v,,,,"Što, zanima ih, tko će kupiti za vjenčani dar?",Zanima ih tko će kupiti posuđe za vjenčani dar.,iq,0,0,1,ob,sub + ob,interrogative pronouns
,inter-stimulus,canvas.Screen,2_23_2,,,,,,response,1012.3000000953907,395163.09999990463,395150.9,395167.6,396179.90000009537,396180.40000009537,2025-02-01T15:28:50.343Z,396185,emVzklJhmZ,incremental,jednostavno-test,679df971131ae225e46b4282,participant,hcpib7hgm6mcd33v,,,mousedown,"Što, zanima ih, tko će kupiti za vjenčani dar?",Zanima ih tko će kupiti posuđe za vjenčani dar.,iq,0,0,1,ob,sub + ob,interrogative pronouns
,Sequence,flow.Sequence,2_23,,,,,,completion,11771.200000095356,384398.2999999523,384392.1,384408.7,396179.90000009537,396180.5,2025-02-01T15:28:50.343Z,396185,emVzklJhmZ,incremental,jednostavno-test,679df971131ae225e46b4282,participant,hcpib7hgm6mcd33v,,,,"Što, zanima ih, tko će kupiti za vjenčani dar?",Zanima ih tko će kupiti posuđe za vjenčani dar.,iq,0,0,1,ob,sub + ob,interrogative pronouns
,context,canvas.Screen,2_24_0_0,,,,,,response,2445.5999999046326,396180.7000000477,396168.33,396185,398630.59999990463,398630.90000009537,2025-02-01T15:28:52.793Z,398653.7,emVzklJhmZ,incremental,jednostavno-test,679df971131ae225e46b4282,participant,hcpib7hgm6mcd33v,,,click,"Tko, zanima ih, što će kupiti za vjenčani dar?",Zanima ih što će Matej kupiti za vjenčani dar.,iq,0,0,0,sub,sub + ob,interrogative pronouns
,Timer frame,html.Frame,2_24_0,,,,,,,2445.9000000953674,396180.59999990463,396168.33,396185,398630.90000009537,398631,2025-02-01T15:28:52.794Z,398653.7,emVzklJhmZ,incremental,jednostavno-test,679df971131ae225e46b4282,participant,hcpib7hgm6mcd33v,,,,"Tko, zanima ih, što će kupiti za vjenčani dar?",Zanima ih što će Matej kupiti za vjenčani dar.,iq,0,0,0,sub,sub + ob,interrogative pronouns
,stimulus,canvas.Screen,2_24_1_0,,,,,,response,4825.799999999988,398631,398637.1,398653.7,403479.5,403479.90000009537,2025-02-01T15:28:57.642Z,403507.8,emVzklJhmZ,incremental,jednostavno-test,679df971131ae225e46b4282,participant,hcpib7hgm6mcd33v,,1,click @1,"Tko, zanima ih, što će kupiti za vjenčani dar?",Zanima ih što će Matej kupiti za vjenčani dar.,iq,0,0,0,sub,sub + ob,interrogative pronouns
,Timer frame,html.Frame,2_24_1,,,,,,,4826.200000095356,398631,398637.1,398653.7,403479.90000009537,403479.90000009537,2025-02-01T15:28:57.643Z,403507.8,emVzklJhmZ,incremental,jednostavno-test,679df971131ae225e46b4282,participant,hcpib7hgm6mcd33v,,,,"Tko, zanima ih, što će kupiti za vjenčani dar?",Zanima ih što će Matej kupiti za vjenčani dar.,iq,0,0,0,sub,sub + ob,interrogative pronouns
,inter-stimulus,canvas.Screen,2_24_2,,,,,,response,3150.999999952328,403480,403491.1,403507.8,406658.7999999523,406659.40000009537,2025-02-01T15:29:00.822Z,406677,emVzklJhmZ,incremental,jednostavno-test,679df971131ae225e46b4282,participant,hcpib7hgm6mcd33v,,,mousedown,"Tko, zanima ih, što će kupiti za vjenčani dar?",Zanima ih što će Matej kupiti za vjenčani dar.,iq,0,0,0,sub,sub + ob,interrogative pronouns
,Sequence,flow.Sequence,2_24,,,,,,completion,10473.799999952316,396180.59999990463,396168.33,396185,406658.7999999523,406659.5,2025-02-01T15:29:00.822Z,406677,emVzklJhmZ,incremental,jednostavno-test,679df971131ae225e46b4282,participant,hcpib7hgm6mcd33v,,,,"Tko, zanima ih, što će kupiti za vjenčani dar?",Zanima ih što će Matej kupiti za vjenčani dar.,iq,0,0,0,sub,sub + ob,interrogative pronouns
,context,canvas.Screen,2_25_0_0,,,,,,response,3028.5999999046326,406659.7000000477,406660.366,406677,409705.59999990463,409705.7999999523,2025-02-01T15:29:03.868Z,409729.6,emVzklJhmZ,incremental,jednostavno-test,679df971131ae225e46b4282,participant,hcpib7hgm6mcd33v,,,click,Koga je Ivo rekao da je nazvao u petak?,Ivo je rekao da je svog prijatelja nazvao u petak.,fac,,,34,ob_dir,ob_dir + ad_mode + ad_measure,interrogative pronouns
,Timer frame,html.Frame,2_25_0,,,,,,,3028.9000000953674,406659.5,406660.366,406677,409705.90000009537,409705.90000009537,2025-02-01T15:29:03.869Z,409729.6,emVzklJhmZ,incremental,jednostavno-test,679df971131ae225e46b4282,participant,hcpib7hgm6mcd33v,,,,Koga je Ivo rekao da je nazvao u petak?,Ivo je rekao da je svog prijatelja nazvao u petak.,fac,,,34,ob_dir,ob_dir + ad_mode + ad_measure,interrogative pronouns
,stimulus,canvas.Screen,2_25_1_0,,,,,,response,5168.999999904656,409706.2000000477,409712.898,409729.6,414898.59999990463,414898.90000009537,2025-02-01T15:29:09.062Z,414917.1,emVzklJhmZ,incremental,jednostavno-test,679df971131ae225e46b4282,participant,hcpib7hgm6mcd33v,,7,click @7,Koga je Ivo rekao da je nazvao u petak?,Ivo je rekao da je svog prijatelja nazvao u petak.,fac,,,34,ob_dir,ob_dir + ad_mode + ad_measure,interrogative pronouns
,Timer frame,html.Frame,2_25_1,,,,,,,5169.300000095391,409706,409712.898,409729.6,414898.90000009537,414899,2025-02-01T15:29:09.062Z,414917.1,emVzklJhmZ,incremental,jednostavno-test,679df971131ae225e46b4282,participant,hcpib7hgm6mcd33v,,,,Koga je Ivo rekao da je nazvao u petak?,Ivo je rekao da je svog prijatelja nazvao u petak.,fac,,,34,ob_dir,ob_dir + ad_mode + ad_measure,interrogative pronouns
,inter-stimulus,canvas.Screen,2_25_2,,,,,,response,2481.8000000953907,414899,414900.466,414917.1,417398.90000009537,417399.40000009537,2025-02-01T15:29:11.562Z,417402.5,emVzklJhmZ,incremental,jednostavno-test,679df971131ae225e46b4282,participant,hcpib7hgm6mcd33v,,,mousedown,Koga je Ivo rekao da je nazvao u petak?,Ivo je rekao da je svog prijatelja nazvao u petak.,fac,,,34,ob_dir,ob_dir + ad_mode + ad_measure,interrogative pronouns
,Sequence,flow.Sequence,2_25,,,,,,completion,10721.900000095367,406659.5,406660.366,406677,417398.90000009537,417399.59999990463,2025-02-01T15:29:11.562Z,417402.5,emVzklJhmZ,incremental,jednostavno-test,679df971131ae225e46b4282,participant,hcpib7hgm6mcd33v,,,,Koga je Ivo rekao da je nazvao u petak?,Ivo je rekao da je svog prijatelja nazvao u petak.,fac,,,34,ob_dir,ob_dir + ad_mode + ad_measure,interrogative pronouns
,context,canvas.Screen,2_26_0_0,,,,,,response,3098.0999999046326,417399.7000000477,417385.9,417402.5,420500.59999990463,420501,2025-02-01T15:29:14.664Z,420505.1,emVzklJhmZ,incremental,jednostavno-test,679df971131ae225e46b4282,participant,hcpib7hgm6mcd33v,,,click,Kamo na ljeto ide Slavko na work and travel program?,Na ljeto Slavko ide u USA na work and travel program.,iq,0,0,8,ad,ad + ad+ ad,interrogative pronouns
,Timer frame,html.Frame,2_26_0,,,,,,,3098.5,417399.7000000477,417385.9,417402.5,420501,420501,2025-02-01T15:29:14.664Z,420505.1,emVzklJhmZ,incremental,jednostavno-test,679df971131ae225e46b4282,participant,hcpib7hgm6mcd33v,,,,Kamo na ljeto ide Slavko na work and travel program?,Na ljeto Slavko ide u USA na work and travel program.,iq,0,0,8,ad,ad + ad+ ad,interrogative pronouns
,stimulus,canvas.Screen,2_26_1_0,,,,,,response,3929.600000047707,420501.2000000477,420488.5,420505.1,424434.7000000477,424435,2025-02-01T15:29:18.598Z,424458.3,emVzklJhmZ,incremental,jednostavno-test,679df971131ae225e46b4282,participant,hcpib7hgm6mcd33v,,7,click @7,Kamo na ljeto ide Slavko na work and travel program?,Na ljeto Slavko ide u USA na work and travel program.,iq,0,0,8,ad,ad + ad+ ad,interrogative pronouns
,Timer frame,html.Frame,2_26_1,,,,,,,3929.9000000000233,420501.09999990463,420488.5,420505.1,424435,424435.09999990463,2025-02-01T15:29:18.598Z,424458.3,emVzklJhmZ,incremental,jednostavno-test,679df971131ae225e46b4282,participant,hcpib7hgm6mcd33v,,,,Kamo na ljeto ide Slavko na work and travel program?,Na ljeto Slavko ide u USA na work and travel program.,iq,0,0,8,ad,ad + ad+ ad,interrogative pronouns
,inter-stimulus,canvas.Screen,2_26_2,,,,,,response,1042.7000000000116,424435.09999990463,424441.7,424458.3,425501,425501.59999990463,2025-02-01T15:29:19.664Z,425509.2,emVzklJhmZ,incremental,jednostavno-test,679df971131ae225e46b4282,participant,hcpib7hgm6mcd33v,,,mousedown,Kamo na ljeto ide Slavko na work and travel program?,Na ljeto Slavko ide u USA na work and travel program.,iq,0,0,8,ad,ad + ad+ ad,interrogative pronouns
,Sequence,flow.Sequence,2_26,,,,,,completion,8098.5,417399.7000000477,417385.9,417402.5,425501,425501.7000000477,2025-02-01T15:29:19.664Z,425509.2,emVzklJhmZ,incremental,jednostavno-test,679df971131ae225e46b4282,participant,hcpib7hgm6mcd33v,,,,Kamo na ljeto ide Slavko na work and travel program?,Na ljeto Slavko ide u USA na work and travel program.,iq,0,0,8,ad,ad + ad+ ad,interrogative pronouns
,context,canvas.Screen,2_27_0_0,,,,,,response,2787.500000047672,425501.7999999523,425492.5,425509.2,428296.7000000477,428297,2025-02-01T15:29:22.460Z,428311.5,emVzklJhmZ,incremental,jednostavno-test,679df971131ae225e46b4282,participant,hcpib7hgm6mcd33v,,,click,Izišao sam iz tog stana u kojem sam pitao što je Anton ostavio.,Pitao sam Antona što je ostavio u mom stanu.,iq,0,0,17,ad,ob + ad,relative pronouns
,Timer frame,html.Frame,2_27_0,,,,,,,2787.7999999999884,425501.7000000477,425492.5,425509.2,428297,428297.09999990463,2025-02-01T15:29:22.460Z,428311.5,emVzklJhmZ,incremental,jednostavno-test,679df971131ae225e46b4282,participant,hcpib7hgm6mcd33v,,,,Izišao sam iz tog stana u kojem sam pitao što je Anton ostavio.,Pitao sam Antona što je ostavio u mom stanu.,iq,0,0,17,ad,ob + ad,relative pronouns
,stimulus,canvas.Screen,2_27_1_0,,,,,,response,5022.200000047684,428297.2000000477,428294.8,428311.5,433333.7000000477,433334.09999990463,2025-02-01T15:29:27.497Z,433349,emVzklJhmZ,incremental,jednostavno-test,679df971131ae225e46b4282,participant,hcpib7hgm6mcd33v,,4,click @4,Izišao sam iz tog stana u kojem sam pitao što je Anton ostavio.,Pitao sam Antona što je ostavio u mom stanu.,iq,0,0,17,ad,ob + ad,relative pronouns
,Timer frame,html.Frame,2_27_1,,,,,,,5022.599999904633,428297.09999990463,428294.8,428311.5,433334.09999990463,433334.09999990463,2025-02-01T15:29:27.497Z,433349,emVzklJhmZ,incremental,jednostavno-test,679df971131ae225e46b4282,participant,hcpib7hgm6mcd33v,,,,Izišao sam iz tog stana u kojem sam pitao što je Anton ostavio.,Pitao sam Antona što je ostavio u mom stanu.,iq,0,0,17,ad,ob + ad,relative pronouns
,inter-stimulus,canvas.Screen,2_27_2,,,,,,response,2576.0999999046326,433334.2000000477,433332.366,433349,435925.09999990463,435925.59999990463,2025-02-01T15:29:30.088Z,435934.5,emVzklJhmZ,incremental,jednostavno-test,679df971131ae225e46b4282,participant,hcpib7hgm6mcd33v,,,mousedown,Izišao sam iz tog stana u kojem sam pitao što je Anton ostavio.,Pitao sam Antona što je ostavio u mom stanu.,iq,0,0,17,ad,ob + ad,relative pronouns
,Sequence,flow.Sequence,2_27,,,,,,completion,10415.899999904621,425501.7000000477,425492.5,425509.2,435925.09999990463,435925.7000000477,2025-02-01T15:29:30.088Z,435934.5,emVzklJhmZ,incremental,jednostavno-test,679df971131ae225e46b4282,participant,hcpib7hgm6mcd33v,,,,Izišao sam iz tog stana u kojem sam pitao što je Anton ostavio.,Pitao sam Antona što je ostavio u mom stanu.,iq,0,0,17,ad,ob + ad,relative pronouns
,context,canvas.Screen,2_28_0_0,,,,,,response,1963.2000000476837,435925.90000009537,435917.7,435934.5,437897.7000000477,437898,2025-02-01T15:29:32.061Z,437902.8,emVzklJhmZ,incremental,jednostavno-test,679df971131ae225e46b4282,participant,hcpib7hgm6mcd33v,,,click,"Kada, kurir je razjasnio, što mora dostaviti?",Kurir je razjasnio što mora dostaviti sutra.,iq,0,0,7,ad,ob + ad,interrogative pronouns
,Timer frame,html.Frame,2_28_0,,,,,,,1963.5999999046326,435925.7000000477,435917.7,435934.5,437898.09999990463,437898.09999990463,2025-02-01T15:29:32.061Z,437902.8,emVzklJhmZ,incremental,jednostavno-test,679df971131ae225e46b4282,participant,hcpib7hgm6mcd33v,,,,"Kada, kurir je razjasnio, što mora dostaviti?",Kurir je razjasnio što mora dostaviti sutra.,iq,0,0,7,ad,ob + ad,interrogative pronouns
,stimulus,canvas.Screen,2_28_1_0,,,,,,response,5056.900000047695,437898.2000000477,437886.1,437902.8,442959.7000000477,442960,2025-02-01T15:29:37.123Z,442990.3,emVzklJhmZ,incremental,jednostavno-test,679df971131ae225e46b4282,participant,hcpib7hgm6mcd33v,,2,click @2,"Kada, kurir je razjasnio, što mora dostaviti?",Kurir je razjasnio što mora dostaviti sutra.,iq,0,0,7,ad,ob + ad,interrogative pronouns
,Timer frame,html.Frame,2_28_1,,,,,,,5057.299999904644,437898.09999990463,437886.1,437902.8,442960.09999990463,442960.09999990463,2025-02-01T15:29:37.123Z,442990.3,emVzklJhmZ,incremental,jednostavno-test,679df971131ae225e46b4282,participant,hcpib7hgm6mcd33v,,,,"Kada, kurir je razjasnio, što mora dostaviti?",Kurir je razjasnio što mora dostaviti sutra.,iq,0,0,7,ad,ob + ad,interrogative pronouns
,inter-stimulus,canvas.Screen,2_28_2,,,,,,response,1284.9000000476954,442960.2000000477,442973.6,442990.3,444275.2000000477,444275.7000000477,2025-02-01T15:29:38.438Z,444291.3,emVzklJhmZ,incremental,jednostavno-test,679df971131ae225e46b4282,participant,hcpib7hgm6mcd33v,,,mousedown,"Kada, kurir je razjasnio, što mora dostaviti?",Kurir je razjasnio što mora dostaviti sutra.,iq,0,0,7,ad,ob + ad,interrogative pronouns
,Sequence,flow.Sequence,2_28,,,,,,completion,8340.700000047684,435925.7000000477,435917.7,435934.5,444275.2000000477,444275.7999999523,2025-02-01T15:29:38.438Z,444291.3,emVzklJhmZ,incremental,jednostavno-test,679df971131ae225e46b4282,participant,hcpib7hgm6mcd33v,,,,"Kada, kurir je razjasnio, što mora dostaviti?",Kurir je razjasnio što mora dostaviti sutra.,iq,0,0,7,ad,ob + ad,interrogative pronouns
,context,canvas.Screen,2_29_0_0,,,,,,response,6565.400000047695,444276,444274.7,444291.3,450856.7000000477,450857.09999990463,2025-02-01T15:29:45.020Z,450863.4,emVzklJhmZ,incremental,jednostavno-test,679df971131ae225e46b4282,participant,hcpib7hgm6mcd33v,,,click,Gdje Tvrtko neće moći provesti vikend s obitelji?,Tvrtko neće moći provesti vikend s obitelji na Bahamima.,neg,,,22,ad_place,ad_time + ad_place,interrogative pronouns
,Timer frame,html.Frame,2_29_0,,,,,,,6565.900000047695,444275.90000009537,444274.7,444291.3,450857.2000000477,450857.2000000477,2025-02-01T15:29:45.020Z,450863.4,emVzklJhmZ,incremental,jednostavno-test,679df971131ae225e46b4282,participant,hcpib7hgm6mcd33v,,,,Gdje Tvrtko neće moći provesti vikend s obitelji?,Tvrtko neće moći provesti vikend s obitelji na Bahamima.,neg,,,22,ad_place,ad_time + ad_place,interrogative pronouns
,stimulus,canvas.Screen,2_29_1_0,,,,,,response,1859.399999952293,450857.2999999523,450846.7,450863.4,452722.7999999523,452723.09999990463,2025-02-01T15:29:46.886Z,452731.6,emVzklJhmZ,incremental,jednostavno-test,679df971131ae225e46b4282,participant,hcpib7hgm6mcd33v,,7,click @7,Gdje Tvrtko neće moći provesti vikend s obitelji?,Tvrtko neće moći provesti vikend s obitelji na Bahamima.,neg,,,22,ad_place,ad_time + ad_place,interrogative pronouns
,Timer frame,html.Frame,2_29_1,,,,,,,1859.6999999046093,450857.2000000477,450846.7,450863.4,452723.09999990463,452723.2000000477,2025-02-01T15:29:46.886Z,452731.6,emVzklJhmZ,incremental,jednostavno-test,679df971131ae225e46b4282,participant,hcpib7hgm6mcd33v,,,,Gdje Tvrtko neće moći provesti vikend s obitelji?,Tvrtko neće moći provesti vikend s obitelji na Bahamima.,neg,,,22,ad_place,ad_time + ad_place,interrogative pronouns
,inter-stimulus,canvas.Screen,2_29_2,,,,,,response,2626.499999904656,452723.2000000477,452715,452731.6,455358.09999990463,455358.59999990463,2025-02-01T15:29:49.521Z,455367.1,emVzklJhmZ,incremental,jednostavno-test,679df971131ae225e46b4282,participant,hcpib7hgm6mcd33v,,,mousedown,Gdje Tvrtko neće moći provesti vikend s obitelji?,Tvrtko neće moći provesti vikend s obitelji na Bahamima.,neg,,,22,ad_place,ad_time + ad_place,interrogative pronouns
,Sequence,flow.Sequence,2_29,,,,,,completion,11066.799999904644,444275.7999999523,444274.7,444291.3,455358.09999990463,455358.7000000477,2025-02-01T15:29:49.521Z,455367.1,emVzklJhmZ,incremental,jednostavno-test,679df971131ae225e46b4282,participant,hcpib7hgm6mcd33v,,,,Gdje Tvrtko neće moći provesti vikend s obitelji?,Tvrtko neće moći provesti vikend s obitelji na Bahamima.,neg,,,22,ad_place,ad_time + ad_place,interrogative pronouns
,context,canvas.Screen,2_30_0_0,,,,,,response,1195.8000000953907,455358.90000009537,455350.5,455367.1,456562.90000009537,456563.2000000477,2025-02-01T15:29:50.726Z,456584.8,emVzklJhmZ,incremental,jednostavno-test,679df971131ae225e46b4282,participant,hcpib7hgm6mcd33v,,,click,Ovo je sport koji Daniela ne voli gledati.,Danijela ne voli gledati nogomet.,neg,0,0,25,ob,ob + ob,relative pronouns
,Timer frame,html.Frame,2_30_0,,,,,,,1196.1999999523396,455358.7000000477,455350.5,455367.1,456563.2999999523,456563.2999999523,2025-02-01T15:29:50.726Z,456584.8,emVzklJhmZ,incremental,jednostavno-test,679df971131ae225e46b4282,participant,hcpib7hgm6mcd33v,,,,Ovo je sport koji Daniela ne voli gledati.,Danijela ne voli gledati nogomet.,neg,0,0,25,ob,ob + ob,relative pronouns
,stimulus,canvas.Screen,2_30_1_0,,,,,,response,2151.9000000476954,456563.40000009537,456568.1,456584.8,458736.7000000477,458737.09999990463,2025-02-01T15:29:52.900Z,458753.3,emVzklJhmZ,incremental,jednostavno-test,679df971131ae225e46b4282,participant,hcpib7hgm6mcd33v,,7,click @7,Ovo je sport koji Daniela ne voli gledati.,Danijela ne voli gledati nogomet.,neg,0,0,25,ob,ob + ob,relative pronouns
,Timer frame,html.Frame,2_30_1,,,,,,,2152.4000000476954,456563.2999999523,456568.1,456584.8,458737.2000000477,458737.2000000477,2025-02-01T15:29:52.900Z,458753.3,emVzklJhmZ,incremental,jednostavno-test,679df971131ae225e46b4282,participant,hcpib7hgm6mcd33v,,,,Ovo je sport koji Daniela ne voli gledati.,Danijela ne voli gledati nogomet.,neg,0,0,25,ob,ob + ob,relative pronouns
,inter-stimulus,canvas.Screen,2_30_2,,,,,,response,1998.7999999046442,458737.2999999523,458736.6,458753.3,460752.09999990463,460752.59999990463,2025-02-01T15:29:54.915Z,460754.9,emVzklJhmZ,incremental,jednostavno-test,679df971131ae225e46b4282,participant,hcpib7hgm6mcd33v,,,mousedown,Ovo je sport koji Daniela ne voli gledati.,Danijela ne voli gledati nogomet.,neg,0,0,25,ob,ob + ob,relative pronouns
,Sequence,flow.Sequence,2_30,,,,,,completion,5384.999999904656,455358.7000000477,455350.5,455367.1,460752.09999990463,460752.7999999523,2025-02-01T15:29:54.915Z,460754.9,emVzklJhmZ,incremental,jednostavno-test,679df971131ae225e46b4282,participant,hcpib7hgm6mcd33v,,,,Ovo je sport koji Daniela ne voli gledati.,Danijela ne voli gledati nogomet.,neg,0,0,25,ob,ob + ob,relative pronouns
,context,canvas.Screen,2_31_0_0,,,,,,response,5285.899999952293,460753,460738.2,460754.9,466040.7999999523,466041.2000000477,2025-02-01T15:30:00.204Z,466042.6,emVzklJhmZ,incremental,jednostavno-test,679df971131ae225e46b4282,participant,hcpib7hgm6mcd33v,,,click,"Kako, Perići znaju, da se Petar tog dana vozio kući?",Perići znaju da se Petar tog dana vrlo brzo vozio kući.,fac,,,38,ad_mode,ob + ad_mode,interrogative pronouns
,Timer frame,html.Frame,2_31_0,,,,,,,5286.30000004766,460752.7999999523,460738.2,460754.9,466041.2000000477,466041.2000000477,2025-02-01T15:30:00.204Z,466042.6,emVzklJhmZ,incremental,jednostavno-test,679df971131ae225e46b4282,participant,hcpib7hgm6mcd33v,,,,"Kako, Perići znaju, da se Petar tog dana vozio kući?",Perići znaju da se Petar tog dana vrlo brzo vozio kući.,fac,,,38,ad_mode,ob + ad_mode,interrogative pronouns
,stimulus,canvas.Screen,2_31_1_0,,,,,,response,5369.300000095391,466041.40000009537,466025.9,466042.6,471411.90000009537,471412.2000000477,2025-02-01T15:30:05.575Z,471413.6,emVzklJhmZ,incremental,jednostavno-test,679df971131ae225e46b4282,participant,hcpib7hgm6mcd33v,,5,click @5,"Kako, Perići znaju, da se Petar tog dana vozio kući?",Perići znaju da se Petar tog dana vrlo brzo vozio kući.,fac,,,38,ad_mode,ob + ad_mode,interrogative pronouns
,Timer frame,html.Frame,2_31_1,,,,,,,5369.69999995234,466041.2000000477,466025.9,466042.6,471412.2999999523,471412.2999999523,2025-02-01T15:30:05.575Z,471413.6,emVzklJhmZ,incremental,jednostavno-test,679df971131ae225e46b4282,participant,hcpib7hgm6mcd33v,,,,"Kako, Perići znaju, da se Petar tog dana vozio kući?",Perići znaju da se Petar tog dana vrlo brzo vozio kući.,fac,,,38,ad_mode,ob + ad_mode,interrogative pronouns
,inter-stimulus,canvas.Screen,2_31_2,,,,,,response,781.4999999046559,471412.2999999523,471397,471413.6,472195.09999990463,472195.59999990463,2025-02-01T15:30:06.358Z,472197.7,emVzklJhmZ,incremental,jednostavno-test,679df971131ae225e46b4282,participant,hcpib7hgm6mcd33v,,,mousedown,"Kako, Perići znaju, da se Petar tog dana vozio kući?",Perići znaju da se Petar tog dana vrlo brzo vozio kući.,fac,,,38,ad_mode,ob + ad_mode,interrogative pronouns
,Sequence,flow.Sequence,2_31,,,,,,completion,11440.19999990461,460752.7999999523,460738.2,460754.9,472195.09999990463,472195.7000000477,2025-02-01T15:30:06.358Z,472197.7,emVzklJhmZ,incremental,jednostavno-test,679df971131ae225e46b4282,participant,hcpib7hgm6mcd33v,,,,"Kako, Perići znaju, da se Petar tog dana vozio kući?",Perići znaju da se Petar tog dana vrlo brzo vozio kući.,fac,,,38,ad_mode,ob + ad_mode,interrogative pronouns
,context,canvas.Screen,2_32_0_0,,,,,,response,2735.200000095356,472195.90000009537,472180.93,472197.7,474932.90000009537,474933.09999990463,2025-02-01T15:30:09.096Z,474933.3,emVzklJhmZ,incremental,jednostavno-test,679df971131ae225e46b4282,participant,hcpib7hgm6mcd33v,,,click,Kako je Ivo rekao da se smijao u kinu?,Ivo je rekao da se smijao vrlo glasno u kinu.,fac,,,35,ad_mode,ob_dir + ad_mode + ad_measure,interrogative pronouns
,Timer frame,html.Frame,2_32_0,,,,,,,2735.5999999523046,472195.7999999523,472180.93,472197.7,474933.2999999523,474933.2999999523,2025-02-01T15:30:09.096Z,474933.3,emVzklJhmZ,incremental,jednostavno-test,679df971131ae225e46b4282,participant,hcpib7hgm6mcd33v,,,,Kako je Ivo rekao da se smijao u kinu?,Ivo je rekao da se smijao vrlo glasno u kinu.,fac,,,35,ad_mode,ob_dir + ad_mode + ad_measure,interrogative pronouns
,stimulus,canvas.Screen,2_32_1_0,,,,,,response,1710.499999952328,474933.2999999523,474933.232,474933.3,476643.7999999523,476644.2000000477,2025-02-01T15:30:10.807Z,476668,emVzklJhmZ,incremental,jednostavno-test,679df971131ae225e46b4282,participant,hcpib7hgm6mcd33v,,7,click @7,Kako je Ivo rekao da se smijao u kinu?,Ivo je rekao da se smijao vrlo glasno u kinu.,fac,,,35,ad_mode,ob_dir + ad_mode + ad_measure,interrogative pronouns
,Timer frame,html.Frame,2_32_1,,,,,,,1710.999999952328,474933.2999999523,474933.232,474933.3,476644.2999999523,476644.40000009537,2025-02-01T15:30:10.807Z,476668,emVzklJhmZ,incremental,jednostavno-test,679df971131ae225e46b4282,participant,hcpib7hgm6mcd33v,,,,Kako je Ivo rekao da se smijao u kinu?,Ivo je rekao da se smijao vrlo glasno u kinu.,fac,,,35,ad_mode,ob_dir + ad_mode + ad_measure,interrogative pronouns
,inter-stimulus,canvas.Screen,2_32_2,,,,,,response,2015.2999999523163,476644.40000009537,476651.3,476668,478683.2999999523,478683.7999999523,2025-02-01T15:30:12.846Z,478686.3,emVzklJhmZ,incremental,jednostavno-test,679df971131ae225e46b4282,participant,hcpib7hgm6mcd33v,,,mousedown,Kako je Ivo rekao da se smijao u kinu?,Ivo je rekao da se smijao vrlo glasno u kinu.,fac,,,35,ad_mode,ob_dir + ad_mode + ad_measure,interrogative pronouns
,Sequence,flow.Sequence,2_32,,,,,,completion,6485.599999952305,472195.7999999523,472180.93,472197.7,478683.2999999523,478683.90000009537,2025-02-01T15:30:12.847Z,478686.3,emVzklJhmZ,incremental,jednostavno-test,679df971131ae225e46b4282,participant,hcpib7hgm6mcd33v,,,,Kako je Ivo rekao da se smijao u kinu?,Ivo je rekao da se smijao vrlo glasno u kinu.,fac,,,35,ad_mode,ob_dir + ad_mode + ad_measure,interrogative pronouns
,context,canvas.Screen,2_33_0_0,,,,,,response,2928.600000095379,478684.09999990463,478669.6,478686.3,481614.90000009537,481615.2999999523,2025-02-01T15:30:15.778Z,481622.1,emVzklJhmZ,incremental,jednostavno-test,679df971131ae225e46b4282,participant,hcpib7hgm6mcd33v,,,click,Kog moja obitelj nije povela na odmor u Bugarsku?,Moja obitelj nije povela mog brata na odmor u Bugarsku.,neg,,,20,ob,ob + ob,interrogative pronouns
,Timer frame,html.Frame,2_33_0,,,,,,,2928.999999952328,478683.90000009537,478669.6,478686.3,481615.2999999523,481615.40000009537,2025-02-01T15:30:15.778Z,481622.1,emVzklJhmZ,incremental,jednostavno-test,679df971131ae225e46b4282,participant,hcpib7hgm6mcd33v,,,,Kog moja obitelj nije povela na odmor u Bugarsku?,Moja obitelj nije povela mog brata na odmor u Bugarsku.,neg,,,20,ob,ob + ob,interrogative pronouns
,stimulus,canvas.Screen,2_33_1_0,,,,,,response,2989.8000000953907,481615.5,481605.466,481622.1,484611.90000009537,484612.2000000477,2025-02-01T15:30:18.775Z,484624.6,emVzklJhmZ,incremental,jednostavno-test,679df971131ae225e46b4282,participant,hcpib7hgm6mcd33v,,7,click @7,Kog moja obitelj nije povela na odmor u Bugarsku?,Moja obitelj nije povela mog brata na odmor u Bugarsku.,neg,,,20,ob,ob + ob,interrogative pronouns
,Timer frame,html.Frame,2_33_1,,,,,,,2990.1999999523396,481615.40000009537,481605.466,481622.1,484612.2999999523,484612.40000009537,2025-02-01T15:30:18.775Z,484624.6,emVzklJhmZ,incremental,jednostavno-test,679df971131ae225e46b4282,participant,hcpib7hgm6mcd33v,,,,Kog moja obitelj nije povela na odmor u Bugarsku?,Moja obitelj nije povela mog brata na odmor u Bugarsku.,neg,,,20,ob,ob + ob,interrogative pronouns
,inter-stimulus,canvas.Screen,2_33_2,,,,,,response,2315.6999999523396,484612.40000009537,484607.83,484624.6,486940.2999999523,486940.90000009537,2025-02-01T15:30:21.103Z,486943.2,emVzklJhmZ,incremental,jednostavno-test,679df971131ae225e46b4282,participant,hcpib7hgm6mcd33v,,,mousedown,Kog moja obitelj nije povela na odmor u Bugarsku?,Moja obitelj nije povela mog brata na odmor u Bugarsku.,neg,,,20,ob,ob + ob,interrogative pronouns
,Sequence,flow.Sequence,2_33,,,,,,completion,8253.999999952328,478683.90000009537,478669.6,478686.3,486940.2999999523,486940.90000009537,2025-02-01T15:30:21.104Z,486943.2,emVzklJhmZ,incremental,jednostavno-test,679df971131ae225e46b4282,participant,hcpib7hgm6mcd33v,,,,Kog moja obitelj nije povela na odmor u Bugarsku?,Moja obitelj nije povela mog brata na odmor u Bugarsku.,neg,,,20,ob,ob + ob,interrogative pronouns
,context,canvas.Screen,2_34_0_0,,,,,,response,2677.700000095356,486941.2000000477,486926.466,486943.2,489620.90000009537,489621.2000000477,2025-02-01T15:30:23.784Z,489628.7,emVzklJhmZ,incremental,jednostavno-test,679df971131ae225e46b4282,participant,hcpib7hgm6mcd33v,,,click,"Što, Perići znaju, da je Petar kupio na tržnici?",Perići znaju da je Petar kupio sat na tržnici.,fac,,,37,ob,ob + ad_mode,interrogative pronouns
,Timer frame,html.Frame,2_34_0,,,,,,,2678.0999999523046,486941,486926.466,486943.2,489621.2999999523,489621.2999999523,2025-02-01T15:30:23.784Z,489628.7,emVzklJhmZ,incremental,jednostavno-test,679df971131ae225e46b4282,participant,hcpib7hgm6mcd33v,,,,"Što, Perići znaju, da je Petar kupio na tržnici?",Perići znaju da je Petar kupio sat na tržnici.,fac,,,37,ob,ob + ad_mode,interrogative pronouns
,stimulus,canvas.Screen,2_34_1_0,,,,,,response,3618.2999999999884,489621.40000009537,489612,489628.7,493247,493247.2999999523,2025-02-01T15:30:27.410Z,493265,emVzklJhmZ,incremental,jednostavno-test,679df971131ae225e46b4282,participant,hcpib7hgm6mcd33v,,7,click @7,"Što, Perići znaju, da je Petar kupio na tržnici?",Perići znaju da je Petar kupio sat na tržnici.,fac,,,37,ob,ob + ad_mode,interrogative pronouns
,Timer frame,html.Frame,2_34_1,,,,,,,3618.5999999523046,489621.40000009537,489612,489628.7,493247.2999999523,493247.5,2025-02-01T15:30:27.410Z,493265,emVzklJhmZ,incremental,jednostavno-test,679df971131ae225e46b4282,participant,hcpib7hgm6mcd33v,,,,"Što, Perići znaju, da je Petar kupio na tržnici?",Perići znaju da je Petar kupio sat na tržnici.,fac,,,37,ob,ob + ad_mode,interrogative pronouns
,inter-stimulus,canvas.Screen,2_34_2,,,,,,response,2724.2999999523163,493247.5,493248.366,493265,495989.2999999523,495989.7000000477,2025-02-01T15:30:30.152Z,496000.6,emVzklJhmZ,incremental,jednostavno-test,679df971131ae225e46b4282,participant,hcpib7hgm6mcd33v,,,mousedown,"Što, Perići znaju, da je Petar kupio na tržnici?",Perići znaju da je Petar kupio sat na tržnici.,fac,,,37,ob,ob + ad_mode,interrogative pronouns
,Sequence,flow.Sequence,2_34,,,,,,completion,9046.099999952305,486941,486926.466,486943.2,495989.2999999523,495989.7999999523,2025-02-01T15:30:30.152Z,496000.6,emVzklJhmZ,incremental,jednostavno-test,679df971131ae225e46b4282,participant,hcpib7hgm6mcd33v,,,,"Što, Perići znaju, da je Petar kupio na tržnici?",Perići znaju da je Petar kupio sat na tržnici.,fac,,,37,ob,ob + ad_mode,interrogative pronouns
,context,canvas.Screen,2_35_0_0,,,,,,response,2533.4000000000233,495990,495983.8,496000.6,498534,498534.2000000477,2025-02-01T15:30:32.697Z,498536,emVzklJhmZ,incremental,jednostavno-test,679df971131ae225e46b4282,participant,hcpib7hgm6mcd33v,,,click,Kakvog koga primijetila sam otkud se vraćajući na krovu čega?,Vraćajući se iz apoteke primijetila sam malog mačića na krovu auta.,nf,,,52,filler,filler,filler
,Timer frame,html.Frame,2_35_0,,,,,,,2533.6999999523396,495989.90000009537,495983.8,496000.6,498534.2999999523,498534.2999999523,2025-02-01T15:30:32.697Z,498536,emVzklJhmZ,incremental,jednostavno-test,679df971131ae225e46b4282,participant,hcpib7hgm6mcd33v,,,,Kakvog koga primijetila sam otkud se vraćajući na krovu čega?,Vraćajući se iz apoteke primijetila sam malog mačića na krovu auta.,nf,,,52,filler,filler,filler
,stimulus,canvas.Screen,2_35_1_0,,,,,,response,7966.900000095367,498534.40000009537,498519.366,498536,506502.90000009537,506503.2999999523,2025-02-01T15:30:40.666Z,506525.9,emVzklJhmZ,incremental,jednostavno-test,679df971131ae225e46b4282,participant,hcpib7hgm6mcd33v,,3,click @3,Kakvog koga primijetila sam otkud se vraćajući na krovu čega?,Vraćajući se iz apoteke primijetila sam malog mačića na krovu auta.,nf,,,52,filler,filler,filler
,Timer frame,html.Frame,2_35_1,,,,,,,7967.299999952316,498534.40000009537,498519.366,498536,506503.2999999523,506503.40000009537,2025-02-01T15:30:40.666Z,506525.9,emVzklJhmZ,incremental,jednostavno-test,679df971131ae225e46b4282,participant,hcpib7hgm6mcd33v,,,,Kakvog koga primijetila sam otkud se vraćajući na krovu čega?,Vraćajući se iz apoteke primijetila sam malog mačića na krovu auta.,nf,,,52,filler,filler,filler
,inter-stimulus,canvas.Screen,2_35_2,,,,,,response,89.399999952293,506503.40000009537,506509.2,506525.9,506615.2999999523,506615.7000000477,2025-02-01T15:30:40.778Z,506626,emVzklJhmZ,incremental,jednostavno-test,679df971131ae225e46b4282,participant,hcpib7hgm6mcd33v,,,mousedown,Kakvog koga primijetila sam otkud se vraćajući na krovu čega?,Vraćajući se iz apoteke primijetila sam malog mačića na krovu auta.,nf,,,52,filler,filler,filler
,Sequence,flow.Sequence,2_35,,,,,,completion,10614.69999995234,495989.90000009537,495983.8,496000.6,506615.2999999523,506615.7000000477,2025-02-01T15:30:40.778Z,506626,emVzklJhmZ,incremental,jednostavno-test,679df971131ae225e46b4282,participant,hcpib7hgm6mcd33v,,,,Kakvog koga primijetila sam otkud se vraćajući na krovu čega?,Vraćajući se iz apoteke primijetila sam malog mačića na krovu auta.,nf,,,52,filler,filler,filler
,context,canvas.Screen,2_36_0_0,,,,,,response,3924,506615.90000009537,506609.3,506626,510550,510550.2000000477,2025-02-01T15:30:44.713Z,510562.5,emVzklJhmZ,incremental,jednostavno-test,679df971131ae225e46b4282,participant,hcpib7hgm6mcd33v,,,click,Koliko je moja sestra platila taksi od zračne luke.,Moja sestra platila je taksi od zračne luke.,gf,0,0,46,filler,filler,filler
,Timer frame,html.Frame,2_36_0,,,,,,,3924.2999999523163,506615.7999999523,506609.3,506626,510550.2999999523,510550.40000009537,2025-02-01T15:30:44.713Z,510562.5,emVzklJhmZ,incremental,jednostavno-test,679df971131ae225e46b4282,participant,hcpib7hgm6mcd33v,,,,Koliko je moja sestra platila taksi od zračne luke.,Moja sestra platila je taksi od zračne luke.,gf,0,0,46,filler,filler,filler
,stimulus,canvas.Screen,2_36_1_0,,,,,,response,6347.5,510550.5,510545.9,510562.5,516910,516910.40000009537,2025-02-01T15:30:51.073Z,516934.5,emVzklJhmZ,incremental,jednostavno-test,679df971131ae225e46b4282,participant,hcpib7hgm6mcd33v,,7,click @7,Koliko je moja sestra platila taksi od zračne luke.,Moja sestra platila je taksi od zračne luke.,gf,0,0,46,filler,filler,filler
,Timer frame,html.Frame,2_36_1,,,,,,,6347.900000095367,510550.40000009537,510545.9,510562.5,516910.40000009537,516910.5,2025-02-01T15:30:51.073Z,516934.5,emVzklJhmZ,incremental,jednostavno-test,679df971131ae225e46b4282,participant,hcpib7hgm6mcd33v,,,,Koliko je moja sestra platila taksi od zračne luke.,Moja sestra platila je taksi od zračne luke.,gf,0,0,46,filler,filler,filler
,inter-stimulus,canvas.Screen,2_36_2,,,,,,response,4005.9000000953674,516910.59999990463,516917.8,516934.5,520940.40000009537,520940.90000009537,2025-02-01T15:30:55.104Z,520954.4,emVzklJhmZ,incremental,jednostavno-test,679df971131ae225e46b4282,participant,hcpib7hgm6mcd33v,,,mousedown,Koliko je moja sestra platila taksi od zračne luke.,Moja sestra platila je taksi od zračne luke.,gf,0,0,46,filler,filler,filler
,Sequence,flow.Sequence,2_36,,,,,,completion,14314.400000095367,506615.7999999523,506609.3,506626,520940.40000009537,520941,2025-02-01T15:30:55.104Z,520954.4,emVzklJhmZ,incremental,jednostavno-test,679df971131ae225e46b4282,participant,hcpib7hgm6mcd33v,,,,Koliko je moja sestra platila taksi od zračne luke.,Moja sestra platila je taksi od zračne luke.,gf,0,0,46,filler,filler,filler
,context,canvas.Screen,2_37_0_0,,,,,,response,1659.5999999999767,520941.2000000477,520937.8,520954.4,522614,522614.2999999523,2025-02-01T15:30:56.777Z,522622.5,emVzklJhmZ,incremental,jednostavno-test,679df971131ae225e46b4282,participant,hcpib7hgm6mcd33v,,,click,Što Danijela ne voli gledati?,Danijela ne voli gledati nogomet.,neg,,,19,ob,ob + ob,interrogative pronouns
,Timer frame,html.Frame,2_37_0,,,,,,,1660.0000000953441,520941.09999990463,520937.8,520954.4,522614.40000009537,522614.40000009537,2025-02-01T15:30:56.777Z,522622.5,emVzklJhmZ,incremental,jednostavno-test,679df971131ae225e46b4282,participant,hcpib7hgm6mcd33v,,,,Što Danijela ne voli gledati?,Danijela ne voli gledati nogomet.,neg,,,19,ob,ob + ob,interrogative pronouns
,stimulus,canvas.Screen,2_37_1_0,,,,,,response,1206.5,522614.5,522605.8,522622.5,523829,523829.2999999523,2025-02-01T15:30:57.992Z,523856.9,emVzklJhmZ,incremental,jednostavno-test,679df971131ae225e46b4282,participant,hcpib7hgm6mcd33v,,7,click @7,Što Danijela ne voli gledati?,Danijela ne voli gledati nogomet.,neg,,,19,ob,ob + ob,interrogative pronouns
,Timer frame,html.Frame,2_37_1,,,,,,,1206.9000000953674,522614.40000009537,522605.8,522622.5,523829.40000009537,523829.40000009537,2025-02-01T15:30:57.992Z,523856.9,emVzklJhmZ,incremental,jednostavno-test,679df971131ae225e46b4282,participant,hcpib7hgm6mcd33v,,,,Što Danijela ne voli gledati?,Danijela ne voli gledati nogomet.,neg,,,19,ob,ob + ob,interrogative pronouns
,inter-stimulus,canvas.Screen,2_37_2,,,,,,response,1261.5999999999767,523829.40000009537,523840.166,523856.9,525118.5,525119,2025-02-01T15:30:59.282Z,525124.6,emVzklJhmZ,incremental,jednostavno-test,679df971131ae225e46b4282,participant,hcpib7hgm6mcd33v,,,mousedown,Što Danijela ne voli gledati?,Danijela ne voli gledati nogomet.,neg,,,19,ob,ob + ob,interrogative pronouns
,Sequence,flow.Sequence,2_37,,,,,,completion,4164.099999999977,520941.09999990463,520937.8,520954.4,525118.5,525119.2000000477,2025-02-01T15:30:59.282Z,525124.6,emVzklJhmZ,incremental,jednostavno-test,679df971131ae225e46b4282,participant,hcpib7hgm6mcd33v,,,,Što Danijela ne voli gledati?,Danijela ne voli gledati nogomet.,neg,,,19,ob,ob + ob,interrogative pronouns
,context,canvas.Screen,2_38_0_0,,,,,,response,2326.499999904656,525119.2999999523,525107.9,525124.6,527451.0999999046,527451.4000000954,2025-02-01T15:31:01.614Z,527459.8,emVzklJhmZ,incremental,jednostavno-test,679df971131ae225e46b4282,participant,hcpib7hgm6mcd33v,,,click,"Kako, Klara milsi, da se Petar tog dana vozio kući?",Klara misli da se Petar tog dana vrlo brzo vozio kući.,fac,,,40,ad_mode,ob + ad_mode,interrogative pronouns
,Timer frame,html.Frame,2_38_0,,,,,,,2326.8000000953907,525119.2000000477,525107.9,525124.6,527451.4000000954,527451.5,2025-02-01T15:31:01.614Z,527459.8,emVzklJhmZ,incremental,jednostavno-test,679df971131ae225e46b4282,participant,hcpib7hgm6mcd33v,,,,"Kako, Klara milsi, da se Petar tog dana vozio kući?",Klara misli da se Petar tog dana vrlo brzo vozio kući.,fac,,,40,ad_mode,ob + ad_mode,interrogative pronouns
,stimulus,canvas.Screen,2_38_1_0,,,,,,response,4628.299999904586,527451.5999999046,527443.132,527459.8,532088.0999999046,532088.5,2025-02-01T15:31:06.251Z,532096.9,emVzklJhmZ,incremental,jednostavno-test,679df971131ae225e46b4282,participant,hcpib7hgm6mcd33v,,7,click @7,"Kako, Klara milsi, da se Petar tog dana vozio kući?",Klara misli da se Petar tog dana vrlo brzo vozio kući.,fac,,,40,ad_mode,ob + ad_mode,interrogative pronouns
,Timer frame,html.Frame,2_38_1,,,,,,,4628.799999904586,527451.5,527443.132,527459.8,532088.5999999046,532088.5999999046,2025-02-01T15:31:06.251Z,532096.9,emVzklJhmZ,incremental,jednostavno-test,679df971131ae225e46b4282,participant,hcpib7hgm6mcd33v,,,,"Kako, Klara milsi, da se Petar tog dana vozio kući?",Klara misli da se Petar tog dana vrlo brzo vozio kući.,fac,,,40,ad_mode,ob + ad_mode,interrogative pronouns
,inter-stimulus,canvas.Screen,2_38_2,,,,,,response,1729.6999999046093,532088.5999999046,532080.266,532096.9,533826.5999999046,533827,2025-02-01T15:31:07.990Z,533831.8,emVzklJhmZ,incremental,jednostavno-test,679df971131ae225e46b4282,participant,hcpib7hgm6mcd33v,,,mousedown,"Kako, Klara milsi, da se Petar tog dana vozio kući?",Klara misli da se Petar tog dana vrlo brzo vozio kući.,fac,,,40,ad_mode,ob + ad_mode,interrogative pronouns
,Sequence,flow.Sequence,2_38,,,,,,completion,8701.999999904656,525119.2000000477,525107.9,525124.6,533826.5999999046,533827.2000000477,2025-02-01T15:31:07.990Z,533831.8,emVzklJhmZ,incremental,jednostavno-test,679df971131ae225e46b4282,participant,hcpib7hgm6mcd33v,,,,"Kako, Klara milsi, da se Petar tog dana vozio kući?",Klara misli da se Petar tog dana vrlo brzo vozio kući.,fac,,,40,ad_mode,ob + ad_mode,interrogative pronouns
,context,canvas.Screen,2_39_0_0,,,,,,response,2315.299999904586,533827.4000000954,533815,533831.8,536147.0999999046,536147.5,2025-02-01T15:31:10.310Z,536167,emVzklJhmZ,incremental,jednostavno-test,679df971131ae225e46b4282,participant,hcpib7hgm6mcd33v,,,click,Koliko piva Ivan žali što je prolio?,Ivan žali što je prolio 3 litre piva.,fac,,,33,ad_measure,ob_dir + ad_mode + ad_measure,interrogative pronouns
