meta,sender,sender_type,sender_id,age,education,croatian-knowledge,occupation,,ended_on,duration,time_run,time_render,time_show,time_end,time_commit,timestamp,time_switch,openLabId,type,task,project,status,code,confirmationCode,response,response_action,stimulus,context,island_type,transfer_s,transfer_c,id,movement,opposition,category
"{""labjs_version"":""20.2.4"",""labjs_build"":{""flavor"":""production"",""commit"":""f5b4a49f956347addd546a832a3327688c2c0fef""},""location"":""https://open-lab.online/test/jednostavno-test/679e139d131ae225e46b42e3"",""userAgent"":""Mozilla/5.0 (Windows NT 10.0; Win64; x64) AppleWebKit/537.36 (KHTML, like Gecko) Chrome/132.0.0.0 Safari/537.36"",""platform"":""Win32"",""language"":""en"",""locale"":""en-US"",""timeZone"":""Europe/Zagreb"",""timezoneOffset"":-60,""screen_width"":1920,""screen_height"":1200,""scroll_width"":1920,""scroll_height"":1017,""window_innerWidth"":1920,""window_innerHeight"":1065,""devicePixelRatio"":1}",Demography form,html.Form,0,32,highschool,mother-tongue,,,form submission,25422.3,548.5,553.6,570.2,25992.5,25992.800000000745,2025-02-01T12:29:46.964Z,26019.6,iPKLhLSMmI,incremental,jednostavno-test,679df971131ae225e46b4282,participant,hcpib7hgm6m66k0j,725340,,,,,,,,,,,
,context,canvas.Screen,1_0,,,,,,response,5277.2000000007465,25993,26003.028,26019.6,31296.800000000745,31297.400000000373,2025-02-01T12:29:52.269Z,31302.814,iPKLhLSMmI,incremental,jednostavno-test,679df971131ae225e46b4282,participant,hcpib7hgm6m66k0j,,,click,,,,,,,,,
,stimulus,canvas.Screen,1_1,,,,,,response,12504.285999999629,31297.5,31302.814,31302.814,43807.09999999963,43807.800000000745,2025-02-01T12:30:04.779Z,43819.1,iPKLhLSMmI,incremental,jednostavno-test,679df971131ae225e46b4282,participant,hcpib7hgm6m66k0j,,7,click @7,,,,,,,,,
,inter-stimulus,canvas.Screen,1_2,,,,,,response,1368.999999999629,43807.800000000745,43802.5,43819.1,45188.09999999963,45188.59999999963,2025-02-01T12:30:06.160Z,45202.5,iPKLhLSMmI,incremental,jednostavno-test,679df971131ae225e46b4282,participant,hcpib7hgm6m66k0j,,,mousedown,,,,,,,,,
,context,canvas.Screen,1_3,,,,,,response,5542.9000000003725,45188.59999999963,45185.8,45202.5,50745.40000000037,50746.09999999963,2025-02-01T12:30:11.717Z,50752.2,iPKLhLSMmI,incremental,jednostavno-test,679df971131ae225e46b4282,participant,hcpib7hgm6m66k0j,,,click,,,,,,,,,
,stimulus,canvas.Screen,1_4,,,,,,response,7235.600000000748,50746.09999999963,50735.698,50752.2,57987.800000000745,57988.5,2025-02-01T12:30:18.960Z,58002,iPKLhLSMmI,incremental,jednostavno-test,679df971131ae225e46b4282,participant,hcpib7hgm6m66k0j,,1,click @1,,,,,,,,,
,inter-stimulus,canvas.Screen,1_5,,,,,,response,579.9000000003725,57988.59999999963,57985.562,58002,58581.90000000037,58582.300000000745,2025-02-01T12:30:19.554Z,58602,iPKLhLSMmI,incremental,jednostavno-test,679df971131ae225e46b4282,participant,hcpib7hgm6m66k0j,,,mousedown,,,,,,,,,
,context,canvas.Screen,1_6,,,,,,response,3096.4000000003725,58582.40000000037,58585.4,58602,61698.40000000037,61699.199999999255,2025-02-01T12:30:22.671Z,61701.9,iPKLhLSMmI,incremental,jednostavno-test,679df971131ae225e46b4282,participant,hcpib7hgm6m66k0j,,,click,,,,,,,,,
,stimulus,canvas.Screen,1_7_0,,,,,,response,5842.000000000371,61699.40000000037,61685.288,61701.9,67543.90000000037,67544.40000000037,2025-02-01T12:30:28.516Z,67568.5,iPKLhLSMmI,incremental,jednostavno-test,679df971131ae225e46b4282,participant,hcpib7hgm6m66k0j,,5,click @5,,,,,,,,,
,Timer frame,html.Frame,1_7,,,,,,,5842.5999999999985,61699.199999999255,61685.288,61701.9,67544.5,67544.59999999963,2025-02-01T12:30:28.516Z,67568.5,iPKLhLSMmI,incremental,jednostavno-test,679df971131ae225e46b4282,participant,hcpib7hgm6m66k0j,,,,,,,,,,,,
,inter-stimulus,canvas.Screen,1_8,,,,,,response,4858.5,67544.69999999925,67551.8,67568.5,72427,72427.80000000075,2025-02-01T12:30:33.399Z,72435,iPKLhLSMmI,incremental,jednostavno-test,679df971131ae225e46b4282,participant,hcpib7hgm6m66k0j,,,mousedown,,,,,,,,,
,First stimuli,flow.Sequence,1,,,,,,completion,46407.4,25993,26003.028,26019.6,72427,72427.90000000037,2025-02-01T12:30:33.399Z,72435,iPKLhLSMmI,incremental,jednostavno-test,679df971131ae225e46b4282,participant,hcpib7hgm6m66k0j,,,,,,,,,,,,
,context,canvas.Screen,2_0_0_0,,,,,,response,2415.800000000745,72428.09999999963,72418.392,72435,74850.80000000075,74851.40000000037,2025-02-01T12:30:35.823Z,74868.3,iPKLhLSMmI,incremental,jednostavno-test,679df971131ae225e46b4282,participant,hcpib7hgm6m66k0j,,,click,Pronašao sam taj uređaj koji mislim da je Marina izgubila.,Mislim da je Marina izgubila laptop.,fac,,,42,ob,ob + ob,non-interrogative component
,Timer frame,html.Frame,2_0_0,,,,,,,2416.4000000003725,72427.90000000037,72418.392,72435,74851.40000000037,74851.5,2025-02-01T12:30:35.823Z,74868.3,iPKLhLSMmI,incremental,jednostavno-test,679df971131ae225e46b4282,participant,hcpib7hgm6m66k0j,,,,Pronašao sam taj uređaj koji mislim da je Marina izgubila.,Mislim da je Marina izgubila laptop.,fac,,,42,ob,ob + ob,non-interrogative component
,stimulus,canvas.Screen,2_0_1_0,,,,,,response,4917.699999999997,74851.80000000075,74851.766,74868.3,79786,79786.59999999963,2025-02-01T12:30:40.758Z,79801.5,iPKLhLSMmI,incremental,jednostavno-test,679df971131ae225e46b4282,participant,hcpib7hgm6m66k0j,,4,click @4,Pronašao sam taj uređaj koji mislim da je Marina izgubila.,Mislim da je Marina izgubila laptop.,fac,,,42,ob,ob + ob,non-interrogative component
,Timer frame,html.Frame,2_0_1,,,,,,,4918.299999999625,74851.69999999925,74851.766,74868.3,79786.59999999963,79786.80000000075,2025-02-01T12:30:40.758Z,79801.5,iPKLhLSMmI,incremental,jednostavno-test,679df971131ae225e46b4282,participant,hcpib7hgm6m66k0j,,,,Pronašao sam taj uređaj koji mislim da je Marina izgubila.,Mislim da je Marina izgubila laptop.,fac,,,42,ob,ob + ob,non-interrogative component
,inter-stimulus,canvas.Screen,2_0_2,,,,,,response,605.0999999996275,79786.80000000075,79784.9,79801.5,80406.59999999963,80407,2025-02-01T12:30:41.378Z,80434.7,iPKLhLSMmI,incremental,jednostavno-test,679df971131ae225e46b4282,participant,hcpib7hgm6m66k0j,,,mousedown,Pronašao sam taj uređaj koji mislim da je Marina izgubila.,Mislim da je Marina izgubila laptop.,fac,,,42,ob,ob + ob,non-interrogative component
,Sequence,flow.Sequence,2_0,,,,,,completion,7971.5999999996275,72427.90000000037,72418.392,72435,80406.59999999963,80407,2025-02-01T12:30:41.378Z,80434.7,iPKLhLSMmI,incremental,jednostavno-test,679df971131ae225e46b4282,participant,hcpib7hgm6m66k0j,,,,Pronašao sam taj uređaj koji mislim da je Marina izgubila.,Mislim da je Marina izgubila laptop.,fac,,,42,ob,ob + ob,non-interrogative component
,context,canvas.Screen,2_1_0_0,,,,,,response,4488.600000000748,80407.30000000075,80418.164,80434.7,84923.30000000075,84923.80000000075,2025-02-01T12:30:45.895Z,84951.2,iPKLhLSMmI,incremental,jednostavno-test,679df971131ae225e46b4282,participant,hcpib7hgm6m66k0j,,,click,"Kome, učitelj je pitao, što treba ponovno objasniti?",Učitelj je pitao što treba učenicima ponovno objasniti..,iq,0,36,4,ob_dir,ob_dir + ob_indir,interrogative pronouns
,Timer frame,html.Frame,2_1_0,,,,,,,4489.100000000748,80407.09999999963,80418.164,80434.7,84923.80000000075,84923.90000000037,2025-02-01T12:30:45.895Z,84951.2,iPKLhLSMmI,incremental,jednostavno-test,679df971131ae225e46b4282,participant,hcpib7hgm6m66k0j,,,,"Kome, učitelj je pitao, što treba ponovno objasniti?",Učitelj je pitao što treba učenicima ponovno objasniti..,iq,0,36,4,ob_dir,ob_dir + ob_indir,interrogative pronouns
,stimulus,canvas.Screen,2_1_1_0,,,,,,response,2724.999999999258,84924.09999999963,84934.728,84951.2,87676.19999999925,87676.59999999963,2025-02-01T12:30:48.648Z,87701.2,iPKLhLSMmI,incremental,jednostavno-test,679df971131ae225e46b4282,participant,hcpib7hgm6m66k0j,,2,click @2,"Kome, učitelj je pitao, što treba ponovno objasniti?",Učitelj je pitao što treba učenicima ponovno objasniti..,iq,0,36,4,ob_dir,ob_dir + ob_indir,interrogative pronouns
,Timer frame,html.Frame,2_1_1,,,,,,,2725.499999999258,84923.90000000037,84934.728,84951.2,87676.69999999925,87676.69999999925,2025-02-01T12:30:48.648Z,87701.2,iPKLhLSMmI,incremental,jednostavno-test,679df971131ae225e46b4282,participant,hcpib7hgm6m66k0j,,,,"Kome, učitelj je pitao, što treba ponovno objasniti?",Učitelj je pitao što treba učenicima ponovno objasniti..,iq,0,36,4,ob_dir,ob_dir + ob_indir,interrogative pronouns
,inter-stimulus,canvas.Screen,2_1_2,,,,,,response,578.4999999992579,87676.80000000075,87684.53,87701.2,88279.69999999925,88280.19999999925,2025-02-01T12:30:49.252Z,88284.5,iPKLhLSMmI,incremental,jednostavno-test,679df971131ae225e46b4282,participant,hcpib7hgm6m66k0j,,,mousedown,"Kome, učitelj je pitao, što treba ponovno objasniti?",Učitelj je pitao što treba učenicima ponovno objasniti..,iq,0,36,4,ob_dir,ob_dir + ob_indir,interrogative pronouns
,Sequence,flow.Sequence,2_1,,,,,,completion,7844.999999999258,80407.09999999963,80418.164,80434.7,88279.69999999925,88280.30000000075,2025-02-01T12:30:49.252Z,88284.5,iPKLhLSMmI,incremental,jednostavno-test,679df971131ae225e46b4282,participant,hcpib7hgm6m66k0j,,,,"Kome, učitelj je pitao, što treba ponovno objasniti?",Učitelj je pitao što treba učenicima ponovno objasniti..,iq,0,36,4,ob_dir,ob_dir + ob_indir,interrogative pronouns
,context,canvas.Screen,2_2_0_0,,,,,,response,3508.5,88280.5,88268.066,88284.5,91793,91793.5,2025-02-01T12:30:52.765Z,91817.8,iPKLhLSMmI,incremental,jednostavno-test,679df971131ae225e46b4282,participant,hcpib7hgm6m66k0j,,,click,"Što, Perići znaju, da je Petar kupio na tržnici?",Perići znaju da je Petar kupio sat na tržnici.,fac,,,37,ob,ob + ad_mode,interrogative pronouns
,Timer frame,html.Frame,2_2_0,,,,,,,3509,88280.40000000037,88268.066,88284.5,91793.5,91793.59999999963,2025-02-01T12:30:52.765Z,91817.8,iPKLhLSMmI,incremental,jednostavno-test,679df971131ae225e46b4282,participant,hcpib7hgm6m66k0j,,,,"Što, Perići znaju, da je Petar kupio na tržnici?",Perići znaju da je Petar kupio sat na tržnici.,fac,,,37,ob,ob + ad_mode,interrogative pronouns
,stimulus,canvas.Screen,2_2_1_0,,,,,,response,3666.000000000742,91793.69999999925,91801.2,91817.8,95483.80000000075,95484.30000000075,2025-02-01T12:30:56.456Z,95517.6,iPKLhLSMmI,incremental,jednostavno-test,679df971131ae225e46b4282,participant,hcpib7hgm6m66k0j,,6,click @6,"Što, Perići znaju, da je Petar kupio na tržnici?",Perići znaju da je Petar kupio sat na tržnici.,fac,,,37,ob,ob + ad_mode,interrogative pronouns
,Timer frame,html.Frame,2_2_1,,,,,,,3666.699999999997,91793.69999999925,91801.2,91817.8,95484.5,95484.5,2025-02-01T12:30:56.456Z,95517.6,iPKLhLSMmI,incremental,jednostavno-test,679df971131ae225e46b4282,participant,hcpib7hgm6m66k0j,,,,"Što, Perići znaju, da je Petar kupio na tržnici?",Perići znaju da je Petar kupio sat na tržnici.,fac,,,37,ob,ob + ad_mode,interrogative pronouns
,inter-stimulus,canvas.Screen,2_2_2,,,,,,response,316.8999999999942,95484.59999999963,95501,95517.6,95834.5,95835.09999999963,2025-02-01T12:30:56.807Z,95867.6,iPKLhLSMmI,incremental,jednostavno-test,679df971131ae225e46b4282,participant,hcpib7hgm6m66k0j,,,mousedown,"Što, Perići znaju, da je Petar kupio na tržnici?",Perići znaju da je Petar kupio sat na tržnici.,fac,,,37,ob,ob + ad_mode,interrogative pronouns
,Sequence,flow.Sequence,2_2,,,,,,completion,7550,88280.40000000037,88268.066,88284.5,95834.5,95835.19999999925,2025-02-01T12:30:56.807Z,95867.6,iPKLhLSMmI,incremental,jednostavno-test,679df971131ae225e46b4282,participant,hcpib7hgm6m66k0j,,,,"Što, Perići znaju, da je Petar kupio na tržnici?",Perići znaju da je Petar kupio sat na tržnici.,fac,,,37,ob,ob + ad_mode,interrogative pronouns
,context,canvas.Screen,2_3_0_0,,,,,,response,2571.2000000007392,95835.40000000037,95851.1,95867.6,98438.80000000075,98439.19999999925,2025-02-01T12:30:59.411Z,98467.6,iPKLhLSMmI,incremental,jednostavno-test,679df971131ae225e46b4282,participant,hcpib7hgm6m66k0j,,,click,Koliko je moja sestra platila taksi od zračne luke.,Moja sestra platila je taksi od zračne luke.,gf,0,0,46,filler,filler,filler
,Timer frame,html.Frame,2_3_0,,,,,,,2571.7000000007392,95835.30000000075,95851.1,95867.6,98439.30000000075,98439.40000000037,2025-02-01T12:30:59.411Z,98467.6,iPKLhLSMmI,incremental,jednostavno-test,679df971131ae225e46b4282,participant,hcpib7hgm6m66k0j,,,,Koliko je moja sestra platila taksi od zračne luke.,Moja sestra platila je taksi od zračne luke.,gf,0,0,46,filler,filler,filler
,stimulus,canvas.Screen,2_3_1_0,,,,,,response,5435.999999999622,98439.59999999963,98451.062,98467.6,103903.59999999963,103904.19999999925,2025-02-01T12:31:04.876Z,103934.1,iPKLhLSMmI,incremental,jednostavno-test,679df971131ae225e46b4282,participant,hcpib7hgm6m66k0j,,4,click @4,Koliko je moja sestra platila taksi od zračne luke.,Moja sestra platila je taksi od zračne luke.,gf,0,0,46,filler,filler,filler
,Timer frame,html.Frame,2_3_1,,,,,,,5436.700000000739,98439.5,98451.062,98467.6,103904.30000000075,103904.30000000075,2025-02-01T12:31:04.876Z,103934.1,iPKLhLSMmI,incremental,jednostavno-test,679df971131ae225e46b4282,participant,hcpib7hgm6m66k0j,,,,Koliko je moja sestra platila taksi od zračne luke.,Moja sestra platila je taksi od zračne luke.,gf,0,0,46,filler,filler,filler
,inter-stimulus,canvas.Screen,2_3_2,,,,,,response,354.0999999992491,103904.40000000037,103917.4,103934.1,104288.19999999925,104288.69999999925,2025-02-01T12:31:05.260Z,104300.8,iPKLhLSMmI,incremental,jednostavno-test,679df971131ae225e46b4282,participant,hcpib7hgm6m66k0j,,,mousedown,Koliko je moja sestra platila taksi od zračne luke.,Moja sestra platila je taksi od zračne luke.,gf,0,0,46,filler,filler,filler
,Sequence,flow.Sequence,2_3,,,,,,completion,8420.59999999925,95835.30000000075,95851.1,95867.6,104288.19999999925,104288.80000000075,2025-02-01T12:31:05.260Z,104300.8,iPKLhLSMmI,incremental,jednostavno-test,679df971131ae225e46b4282,participant,hcpib7hgm6m66k0j,,,,Koliko je moja sestra platila taksi od zračne luke.,Moja sestra platila je taksi od zračne luke.,gf,0,0,46,filler,filler,filler
,context,canvas.Screen,2_4_0_0,,,,,,response,3499.000000000742,104289,104284.132,104300.8,107799.80000000075,107800.5,2025-02-01T12:31:08.772Z,107817.3,iPKLhLSMmI,incremental,jednostavno-test,679df971131ae225e46b4282,participant,hcpib7hgm6m66k0j,,,click,Koliko pjesama Stepan nije stignuo naučiti za sat književnosti?,Stepan nije stignuo naučiti 3 pjesme za sat književnosti.,neg,,,24,ad_measure,ad_mode + ad_measure,interrogative pronouns
,Timer frame,html.Frame,2_4_0,,,,,,,3499.7999999996246,104288.80000000075,104284.132,104300.8,107800.59999999963,107800.59999999963,2025-02-01T12:31:08.772Z,107817.3,iPKLhLSMmI,incremental,jednostavno-test,679df971131ae225e46b4282,participant,hcpib7hgm6m66k0j,,,,Koliko pjesama Stepan nije stignuo naučiti za sat književnosti?,Stepan nije stignuo naučiti 3 pjesme za sat književnosti.,neg,,,24,ad_measure,ad_mode + ad_measure,interrogative pronouns
,stimulus,canvas.Screen,2_4_1_0,,,,,,response,6573.699999999997,107800.80000000075,107800.7,107817.3,114391,114391.59999999963,2025-02-01T12:31:15.363Z,114400.5,iPKLhLSMmI,incremental,jednostavno-test,679df971131ae225e46b4282,participant,hcpib7hgm6m66k0j,,3,click @3,Koliko pjesama Stepan nije stignuo naučiti za sat književnosti?,Stepan nije stignuo naučiti 3 pjesme za sat književnosti.,neg,,,24,ad_measure,ad_mode + ad_measure,interrogative pronouns
,Timer frame,html.Frame,2_4_1,,,,,,,6574.399999999252,107800.59999999963,107800.7,107817.3,114391.69999999925,114391.69999999925,2025-02-01T12:31:15.363Z,114400.5,iPKLhLSMmI,incremental,jednostavno-test,679df971131ae225e46b4282,participant,hcpib7hgm6m66k0j,,,,Koliko pjesama Stepan nije stignuo naučiti za sat književnosti?,Stepan nije stignuo naučiti 3 pjesme za sat književnosti.,neg,,,24,ad_measure,ad_mode + ad_measure,interrogative pronouns
,inter-stimulus,canvas.Screen,2_4_2,,,,,,response,324.19999999925494,114391.69999999925,114383.998,114400.5,114724.69999999925,114725.09999999963,2025-02-01T12:31:15.697Z,114733.8,iPKLhLSMmI,incremental,jednostavno-test,679df971131ae225e46b4282,participant,hcpib7hgm6m66k0j,,,mousedown,Koliko pjesama Stepan nije stignuo naučiti za sat književnosti?,Stepan nije stignuo naučiti 3 pjesme za sat književnosti.,neg,,,24,ad_measure,ad_mode + ad_measure,interrogative pronouns
,Sequence,flow.Sequence,2_4,,,,,,completion,10423.899999999252,104288.80000000075,104284.132,104300.8,114724.69999999925,114725.30000000075,2025-02-01T12:31:15.697Z,114733.8,iPKLhLSMmI,incremental,jednostavno-test,679df971131ae225e46b4282,participant,hcpib7hgm6m66k0j,,,,Koliko pjesama Stepan nije stignuo naučiti za sat književnosti?,Stepan nije stignuo naučiti 3 pjesme za sat književnosti.,neg,,,24,ad_measure,ad_mode + ad_measure,interrogative pronouns
,context,canvas.Screen,2_5_0_0,,,,,,response,1009.1999999999971,114725.5,114717.232,114733.8,115743,115743.59999999963,2025-02-01T12:31:16.715Z,115767.1,iPKLhLSMmI,incremental,jednostavno-test,679df971131ae225e46b4282,participant,hcpib7hgm6m66k0j,,,click,Kad Martin ne dolazi na posao?,Martin sutra ne dolazi na posao.,neg,,,21,ad_time,ad_time + ad_place,interrogative pronouns
,Timer frame,html.Frame,2_5_0,,,,,,,1009.7999999996246,114725.30000000075,114717.232,114733.8,115743.59999999963,115743.59999999963,2025-02-01T12:31:16.715Z,115767.1,iPKLhLSMmI,incremental,jednostavno-test,679df971131ae225e46b4282,participant,hcpib7hgm6m66k0j,,,,Kad Martin ne dolazi na posao?,Martin sutra ne dolazi na posao.,neg,,,21,ad_time,ad_time + ad_place,interrogative pronouns
,stimulus,canvas.Screen,2_5_1_0,,,,,,response,5226.399999999994,115743.80000000075,115750.63,115767.1,120993.5,120994,2025-02-01T12:31:21.965Z,121000.3,iPKLhLSMmI,incremental,jednostavno-test,679df971131ae225e46b4282,participant,hcpib7hgm6m66k0j,,7,click @7,Kad Martin ne dolazi na posao?,Martin sutra ne dolazi na posao.,neg,,,21,ad_time,ad_time + ad_place,interrogative pronouns
,Timer frame,html.Frame,2_5_1,,,,,,,5226.999999999622,115743.59999999963,115750.63,115767.1,120994.09999999963,120994.19999999925,2025-02-01T12:31:21.966Z,121000.3,iPKLhLSMmI,incremental,jednostavno-test,679df971131ae225e46b4282,participant,hcpib7hgm6m66k0j,,,,Kad Martin ne dolazi na posao?,Martin sutra ne dolazi na posao.,neg,,,21,ad_time,ad_time + ad_place,interrogative pronouns
,inter-stimulus,canvas.Screen,2_5_2,,,,,,response,335.39999999925203,120994.19999999925,120983.7,121000.3,121335.69999999925,121336.09999999963,2025-02-01T12:31:22.308Z,121350.4,iPKLhLSMmI,incremental,jednostavno-test,679df971131ae225e46b4282,participant,hcpib7hgm6m66k0j,,,mousedown,Kad Martin ne dolazi na posao?,Martin sutra ne dolazi na posao.,neg,,,21,ad_time,ad_time + ad_place,interrogative pronouns
,Sequence,flow.Sequence,2_5,,,,,,completion,6601.899999999252,114725.30000000075,114717.232,114733.8,121335.69999999925,121336.19999999925,2025-02-01T12:31:22.308Z,121350.4,iPKLhLSMmI,incremental,jednostavno-test,679df971131ae225e46b4282,participant,hcpib7hgm6m66k0j,,,,Kad Martin ne dolazi na posao?,Martin sutra ne dolazi na posao.,neg,,,21,ad_time,ad_time + ad_place,interrogative pronouns
,context,canvas.Screen,2_6_0_0,,,,,,response,1440.6000000000058,121336.40000000037,121333.732,121350.4,122791,122791.5,2025-02-01T12:31:23.763Z,122817,iPKLhLSMmI,incremental,jednostavno-test,679df971131ae225e46b4282,participant,hcpib7hgm6m66k0j,,,click,"Što, Klara misli, da je Petar kupio na tržnici?",Klara misli da je Petar kupio sat na tržnici.,fac,,,39,ob,ob + ad_mode,interrogative pronouns
,Timer frame,html.Frame,2_6_0,,,,,,,1441.1000000000058,121336.19999999925,121333.732,121350.4,122791.5,122791.5,2025-02-01T12:31:23.763Z,122817,iPKLhLSMmI,incremental,jednostavno-test,679df971131ae225e46b4282,participant,hcpib7hgm6m66k0j,,,,"Što, Klara misli, da je Petar kupio na tržnici?",Klara misli da je Petar kupio sat na tržnici.,fac,,,39,ob,ob + ad_mode,interrogative pronouns
,stimulus,canvas.Screen,2_6_1_0,,,,,,response,4512.9000000003725,122791.59999999963,122800.33,122817,127329.90000000037,127330.40000000037,2025-02-01T12:31:28.302Z,127333.4,iPKLhLSMmI,incremental,jednostavno-test,679df971131ae225e46b4282,participant,hcpib7hgm6m66k0j,,4,click @4,"Što, Klara misli, da je Petar kupio na tržnici?",Klara misli da je Petar kupio sat na tržnici.,fac,,,39,ob,ob + ad_mode,interrogative pronouns
,Timer frame,html.Frame,2_6_1,,,,,,,4513.5,122791.59999999963,122800.33,122817,127330.5,127330.59999999963,2025-02-01T12:31:28.302Z,127333.4,iPKLhLSMmI,incremental,jednostavno-test,679df971131ae225e46b4282,participant,hcpib7hgm6m66k0j,,,,"Što, Klara misli, da je Petar kupio na tržnici?",Klara misli da je Petar kupio sat na tržnici.,fac,,,39,ob,ob + ad_mode,interrogative pronouns
,inter-stimulus,canvas.Screen,2_6_2,,,,,,response,284.6000000000058,127330.59999999963,127316.962,127333.4,127618,127618.40000000037,2025-02-01T12:31:28.590Z,127650.2,iPKLhLSMmI,incremental,jednostavno-test,679df971131ae225e46b4282,participant,hcpib7hgm6m66k0j,,,mousedown,"Što, Klara misli, da je Petar kupio na tržnici?",Klara misli da je Petar kupio sat na tržnici.,fac,,,39,ob,ob + ad_mode,interrogative pronouns
,Sequence,flow.Sequence,2_6,,,,,,completion,6267.600000000006,121336.19999999925,121333.732,121350.4,127618,127618.59999999963,2025-02-01T12:31:28.590Z,127650.2,iPKLhLSMmI,incremental,jednostavno-test,679df971131ae225e46b4282,participant,hcpib7hgm6m66k0j,,,,"Što, Klara misli, da je Petar kupio na tržnici?",Klara misli da je Petar kupio sat na tržnici.,fac,,,39,ob,ob + ad_mode,interrogative pronouns
,context,canvas.Screen,2_7_0_0,,,,,,response,3753.600000000748,127618.90000000037,127633.5,127650.2,131403.80000000075,131404.09999999963,2025-02-01T12:31:32.376Z,131416.6,iPKLhLSMmI,incremental,jednostavno-test,679df971131ae225e46b4282,participant,hcpib7hgm6m66k0j,,,click,"Što, zanima ih, tko će kupiti za vjenčani dar?",Zanima ih tko će kupiti posuđe za vjenčani dar.,iq,0,0,1,ob,sub + ob,interrogative pronouns
,Timer frame,html.Frame,2_7_0,,,,,,,3753.8999999996304,127618.59999999963,127633.5,127650.2,131404.09999999963,131404.19999999925,2025-02-01T12:31:32.376Z,131416.6,iPKLhLSMmI,incremental,jednostavno-test,679df971131ae225e46b4282,participant,hcpib7hgm6m66k0j,,,,"Što, zanima ih, tko će kupiti za vjenčani dar?",Zanima ih tko će kupiti posuđe za vjenčani dar.,iq,0,0,1,ob,sub + ob,interrogative pronouns
,stimulus,canvas.Screen,2_7_1_0,,,,,,response,2742.399999999994,131404.30000000075,131400.2,131416.6,134159,134159.30000000075,2025-02-01T12:31:35.131Z,134183.3,iPKLhLSMmI,incremental,jednostavno-test,679df971131ae225e46b4282,participant,hcpib7hgm6m66k0j,,1,click @1,"Što, zanima ih, tko će kupiti za vjenčani dar?",Zanima ih tko će kupiti posuđe za vjenčani dar.,iq,0,0,1,ob,sub + ob,interrogative pronouns
,Timer frame,html.Frame,2_7_1,,,,,,,2742.8000000003667,131404.19999999925,131400.2,131416.6,134159.40000000037,134159.5,2025-02-01T12:31:35.131Z,134183.3,iPKLhLSMmI,incremental,jednostavno-test,679df971131ae225e46b4282,participant,hcpib7hgm6m66k0j,,,,"Što, zanima ih, tko će kupiti za vjenčani dar?",Zanima ih tko će kupiti posuđe za vjenčani dar.,iq,0,0,1,ob,sub + ob,interrogative pronouns
,inter-stimulus,canvas.Screen,2_7_2,,,,,,response,226.5000000007567,134159.5,134166.6,134183.3,134409.80000000075,134410.19999999925,2025-02-01T12:31:35.382Z,134416.7,iPKLhLSMmI,incremental,jednostavno-test,679df971131ae225e46b4282,participant,hcpib7hgm6m66k0j,,,mousedown,"Što, zanima ih, tko će kupiti za vjenčani dar?",Zanima ih tko će kupiti posuđe za vjenčani dar.,iq,0,0,1,ob,sub + ob,interrogative pronouns
,Sequence,flow.Sequence,2_7,,,,,,completion,6759.600000000748,127618.59999999963,127633.5,127650.2,134409.80000000075,134410.30000000075,2025-02-01T12:31:35.382Z,134416.7,iPKLhLSMmI,incremental,jednostavno-test,679df971131ae225e46b4282,participant,hcpib7hgm6m66k0j,,,,"Što, zanima ih, tko će kupiti za vjenčani dar?",Zanima ih tko će kupiti posuđe za vjenčani dar.,iq,0,0,1,ob,sub + ob,interrogative pronouns
,context,canvas.Screen,2_8_0_0,,,,,,response,1045.1000000007334,134410.5,134399.932,134416.7,135461.80000000075,135462.09999999963,2025-02-01T12:31:36.434Z,135483.3,iPKLhLSMmI,incremental,jednostavno-test,679df971131ae225e46b4282,participant,hcpib7hgm6m66k0j,,,click,Što Danijela ne voli gledati?,Danijela ne voli gledati nogomet.,neg,,,19,ob,ob + ob,interrogative pronouns
,Timer frame,html.Frame,2_8_0,,,,,,,1045.4999999992433,134410.40000000037,134399.932,134416.7,135462.19999999925,135462.30000000075,2025-02-01T12:31:36.434Z,135483.3,iPKLhLSMmI,incremental,jednostavno-test,679df971131ae225e46b4282,participant,hcpib7hgm6m66k0j,,,,Što Danijela ne voli gledati?,Danijela ne voli gledati nogomet.,neg,,,19,ob,ob + ob,interrogative pronouns
,stimulus,canvas.Screen,2_8_1_0,,,,,,response,1305.6000000003842,135462.5,135466.6,135483.3,136788.90000000037,136789.40000000037,2025-02-01T12:31:37.761Z,136816.5,iPKLhLSMmI,incremental,jednostavno-test,679df971131ae225e46b4282,participant,hcpib7hgm6m66k0j,,7,click @7,Što Danijela ne voli gledati?,Danijela ne voli gledati nogomet.,neg,,,19,ob,ob + ob,interrogative pronouns
,Timer frame,html.Frame,2_8_1,,,,,,,1306.1000000003842,135462.30000000075,135466.6,135483.3,136789.40000000037,136789.5,2025-02-01T12:31:37.761Z,136816.5,iPKLhLSMmI,incremental,jednostavno-test,679df971131ae225e46b4282,participant,hcpib7hgm6m66k0j,,,,Što Danijela ne voli gledati?,Danijela ne voli gledati nogomet.,neg,,,19,ob,ob + ob,interrogative pronouns
,inter-stimulus,canvas.Screen,2_8_2,,,,,,response,283.80000000074506,136789.59999999963,136800.032,136816.5,137100.30000000075,137100.90000000037,2025-02-01T12:31:38.072Z,137116.6,iPKLhLSMmI,incremental,jednostavno-test,679df971131ae225e46b4282,participant,hcpib7hgm6m66k0j,,,mousedown,Što Danijela ne voli gledati?,Danijela ne voli gledati nogomet.,neg,,,19,ob,ob + ob,interrogative pronouns
,Sequence,flow.Sequence,2_8,,,,,,completion,2683.6000000007334,134410.40000000037,134399.932,134416.7,137100.30000000075,137101,2025-02-01T12:31:38.072Z,137116.6,iPKLhLSMmI,incremental,jednostavno-test,679df971131ae225e46b4282,participant,hcpib7hgm6m66k0j,,,,Što Danijela ne voli gledati?,Danijela ne voli gledati nogomet.,neg,,,19,ob,ob + ob,interrogative pronouns
,context,canvas.Screen,2_9_0_0,,,,,,response,1957.9999999996217,137101.19999999925,137100,137116.6,139074.59999999963,139075.09999999963,2025-02-01T12:31:40.047Z,139083.2,iPKLhLSMmI,incremental,jednostavno-test,679df971131ae225e46b4282,participant,hcpib7hgm6m66k0j,,,click,Što sam izčitao od te Necronomiconu?,Našao sam nekakav Necronomicon na tavanu.,nf,,,53,filler,filler,filler
,Timer frame,html.Frame,2_9_0,,,,,,,1958.5999999992491,137101,137100,137116.6,139075.19999999925,139075.19999999925,2025-02-01T12:31:40.047Z,139083.2,iPKLhLSMmI,incremental,jednostavno-test,679df971131ae225e46b4282,participant,hcpib7hgm6m66k0j,,,,Što sam izčitao od te Necronomiconu?,Našao sam nekakav Necronomicon na tavanu.,nf,,,53,filler,filler,filler
,stimulus,canvas.Screen,2_9_1_0,,,,,,response,2153.899999999616,139075.40000000037,139066.598,139083.2,141237.09999999963,141237.40000000037,2025-02-01T12:31:42.209Z,141249.7,iPKLhLSMmI,incremental,jednostavno-test,679df971131ae225e46b4282,participant,hcpib7hgm6m66k0j,,1,click @1,Što sam izčitao od te Necronomiconu?,Našao sam nekakav Necronomicon na tavanu.,nf,,,53,filler,filler,filler
,Timer frame,html.Frame,2_9_1,,,,,,,2154.2999999999884,139075.30000000075,139066.598,139083.2,141237.5,141237.5,2025-02-01T12:31:42.209Z,141249.7,iPKLhLSMmI,incremental,jednostavno-test,679df971131ae225e46b4282,participant,hcpib7hgm6m66k0j,,,,Što sam izčitao od te Necronomiconu?,Našao sam nekakav Necronomicon na tavanu.,nf,,,53,filler,filler,filler
,inter-stimulus,canvas.Screen,2_9_2,,,,,,response,289.79999999998836,141237.59999999963,141233.1,141249.7,141539.5,141540.09999999963,2025-02-01T12:31:42.512Z,141549.8,iPKLhLSMmI,incremental,jednostavno-test,679df971131ae225e46b4282,participant,hcpib7hgm6m66k0j,,,mousedown,Što sam izčitao od te Necronomiconu?,Našao sam nekakav Necronomicon na tavanu.,nf,,,53,filler,filler,filler
,Sequence,flow.Sequence,2_9,,,,,,completion,4422.899999999994,137101,137100,137116.6,141539.5,141540.19999999925,2025-02-01T12:31:42.512Z,141549.8,iPKLhLSMmI,incremental,jednostavno-test,679df971131ae225e46b4282,participant,hcpib7hgm6m66k0j,,,,Što sam izčitao od te Necronomiconu?,Našao sam nekakav Necronomicon na tavanu.,nf,,,53,filler,filler,filler
,context,canvas.Screen,2_10_0_0,,,,,,response,1988.6000000003842,141540.30000000075,141533.166,141549.8,143538.40000000037,143538.90000000037,2025-02-01T12:31:44.510Z,143549.6,iPKLhLSMmI,incremental,jednostavno-test,679df971131ae225e46b4282,participant,hcpib7hgm6m66k0j,,,click,Kakvog koga primijetila sam otkud se vraćajući na krovu čega?,Vraćajući se iz apoteke primijetila sam malog mačića na krovu auta.,nf,,,52,filler,filler,filler
,Timer frame,html.Frame,2_10_0,,,,,,,1989.1000000003842,141540.19999999925,141533.166,141549.8,143538.90000000037,143539,2025-02-01T12:31:44.510Z,143549.6,iPKLhLSMmI,incremental,jednostavno-test,679df971131ae225e46b4282,participant,hcpib7hgm6m66k0j,,,,Kakvog koga primijetila sam otkud se vraćajući na krovu čega?,Vraćajući se iz apoteke primijetila sam malog mačića na krovu auta.,nf,,,52,filler,filler,filler
,stimulus,canvas.Screen,2_10_1_0,,,,,,response,3595.399999999994,143539.09999999963,143533.264,143549.6,147145,147145.40000000037,2025-02-01T12:31:48.117Z,147166.3,iPKLhLSMmI,incremental,jednostavno-test,679df971131ae225e46b4282,participant,hcpib7hgm6m66k0j,,3,click @3,Kakvog koga primijetila sam otkud se vraćajući na krovu čega?,Vraćajući se iz apoteke primijetila sam malog mačića na krovu auta.,nf,,,52,filler,filler,filler
,Timer frame,html.Frame,2_10_1,,,,,,,3595.9999999996217,143539,143533.264,143549.6,147145.59999999963,147145.59999999963,2025-02-01T12:31:48.117Z,147166.3,iPKLhLSMmI,incremental,jednostavno-test,679df971131ae225e46b4282,participant,hcpib7hgm6m66k0j,,,,Kakvog koga primijetila sam otkud se vraćajući na krovu čega?,Vraćajući se iz apoteke primijetila sam malog mačića na krovu auta.,nf,,,52,filler,filler,filler
,inter-stimulus,canvas.Screen,2_10_2,,,,,,response,275.60000000038417,147145.59999999963,147149.6,147166.3,147441.90000000037,147442.40000000037,2025-02-01T12:31:48.414Z,147449.6,iPKLhLSMmI,incremental,jednostavno-test,679df971131ae225e46b4282,participant,hcpib7hgm6m66k0j,,,mousedown,Kakvog koga primijetila sam otkud se vraćajući na krovu čega?,Vraćajući se iz apoteke primijetila sam malog mačića na krovu auta.,nf,,,52,filler,filler,filler
,Sequence,flow.Sequence,2_10,,,,,,completion,5892.100000000384,141540.19999999925,141533.166,141549.8,147441.90000000037,147442.40000000037,2025-02-01T12:31:48.414Z,147449.6,iPKLhLSMmI,incremental,jednostavno-test,679df971131ae225e46b4282,participant,hcpib7hgm6m66k0j,,,,Kakvog koga primijetila sam otkud se vraćajući na krovu čega?,Vraćajući se iz apoteke primijetila sam malog mačića na krovu auta.,nf,,,52,filler,filler,filler
,context,canvas.Screen,2_11_0_0,,,,,,response,1881.5999999992491,147442.69999999925,147432.9,147449.6,149331.19999999925,149331.80000000075,2025-02-01T12:31:50.303Z,149351.1,iPKLhLSMmI,incremental,jednostavno-test,679df971131ae225e46b4282,participant,hcpib7hgm6m66k0j,,,click,"Što, kurir je razjasnio, kada mora dostaviti?",Kurir je razjasnio kada mora dostaviti paket.,iq,,0,6,ob,ob + ad,interrogative pronouns
,Timer frame,html.Frame,2_11_0,,,,,,,1882.3000000003667,147442.5,147432.9,147449.6,149331.90000000037,149331.90000000037,2025-02-01T12:31:50.303Z,149351.1,iPKLhLSMmI,incremental,jednostavno-test,679df971131ae225e46b4282,participant,hcpib7hgm6m66k0j,,,,"Što, kurir je razjasnio, kada mora dostaviti?",Kurir je razjasnio kada mora dostaviti paket.,iq,,0,6,ob,ob + ad,interrogative pronouns
,stimulus,canvas.Screen,2_11_1_0,,,,,,response,2138.599999999249,149332.09999999963,149316.3,149351.1,151489.69999999925,151490,2025-02-01T12:31:52.461Z,151516.1,iPKLhLSMmI,incremental,jednostavno-test,679df971131ae225e46b4282,participant,hcpib7hgm6m66k0j,,2,click @2,"Što, kurir je razjasnio, kada mora dostaviti?",Kurir je razjasnio kada mora dostaviti paket.,iq,,0,6,ob,ob + ad,interrogative pronouns
,Timer frame,html.Frame,2_11_1,,,,,,,2138.9999999996217,149331.90000000037,149316.3,149351.1,151490.09999999963,151490.09999999963,2025-02-01T12:31:52.461Z,151516.1,iPKLhLSMmI,incremental,jednostavno-test,679df971131ae225e46b4282,participant,hcpib7hgm6m66k0j,,,,"Što, kurir je razjasnio, kada mora dostaviti?",Kurir je razjasnio kada mora dostaviti paket.,iq,,0,6,ob,ob + ad,interrogative pronouns
,inter-stimulus,canvas.Screen,2_11_2,,,,,,response,233.49999999962165,151490.09999999963,151499.5,151516.1,151749.59999999963,151750.19999999925,2025-02-01T12:31:52.722Z,151766.2,iPKLhLSMmI,incremental,jednostavno-test,679df971131ae225e46b4282,participant,hcpib7hgm6m66k0j,,,mousedown,"Što, kurir je razjasnio, kada mora dostaviti?",Kurir je razjasnio kada mora dostaviti paket.,iq,,0,6,ob,ob + ad,interrogative pronouns
,Sequence,flow.Sequence,2_11,,,,,,completion,4299.999999999622,147442.5,147432.9,147449.6,151749.59999999963,151750.30000000075,2025-02-01T12:31:52.722Z,151766.2,iPKLhLSMmI,incremental,jednostavno-test,679df971131ae225e46b4282,participant,hcpib7hgm6m66k0j,,,,"Što, kurir je razjasnio, kada mora dostaviti?",Kurir je razjasnio kada mora dostaviti paket.,iq,,0,6,ob,ob + ad,interrogative pronouns
,context,canvas.Screen,2_12_0_0,,,,,,response,2792.6000000007334,151750.5,151749.498,151766.2,154558.80000000075,154559.19999999925,2025-02-01T12:31:55.531Z,154582.7,iPKLhLSMmI,incremental,jednostavno-test,679df971131ae225e46b4282,participant,hcpib7hgm6m66k0j,,,click,"Što, učitelj je pitao, kome treba ponovno objasniti?",Učitelj je pitao kome treba ponovno objasniti novo pravilo..,iq,0,36,5,ob_indir,ob_dir + ob_indir,interrogative pronouns
,Timer frame,html.Frame,2_12_0,,,,,,,2792.9999999992433,151750.30000000075,151749.498,151766.2,154559.19999999925,154559.19999999925,2025-02-01T12:31:55.531Z,154582.7,iPKLhLSMmI,incremental,jednostavno-test,679df971131ae225e46b4282,participant,hcpib7hgm6m66k0j,,,,"Što, učitelj je pitao, kome treba ponovno objasniti?",Učitelj je pitao kome treba ponovno objasniti novo pravilo..,iq,0,36,5,ob_indir,ob_dir + ob_indir,interrogative pronouns
,stimulus,canvas.Screen,2_12_1_0,,,,,,response,3473.9999999992433,154559.40000000037,154566.13,154582.7,158056.69999999925,158057.19999999925,2025-02-01T12:31:59.029Z,158065.9,iPKLhLSMmI,incremental,jednostavno-test,679df971131ae225e46b4282,participant,hcpib7hgm6m66k0j,,4,click @4,"Što, učitelj je pitao, kome treba ponovno objasniti?",Učitelj je pitao kome treba ponovno objasniti novo pravilo..,iq,0,36,5,ob_indir,ob_dir + ob_indir,interrogative pronouns
,Timer frame,html.Frame,2_12_1,,,,,,,3474.6000000007334,154559.19999999925,154566.13,154582.7,158057.30000000075,158057.30000000075,2025-02-01T12:31:59.029Z,158065.9,iPKLhLSMmI,incremental,jednostavno-test,679df971131ae225e46b4282,participant,hcpib7hgm6m66k0j,,,,"Što, učitelj je pitao, kome treba ponovno objasniti?",Učitelj je pitao kome treba ponovno objasniti novo pravilo..,iq,0,36,5,ob_indir,ob_dir + ob_indir,interrogative pronouns
,inter-stimulus,canvas.Screen,2_12_2,,,,,,response,327.6999999996333,158057.30000000075,158049.43,158065.9,158393.59999999963,158394,2025-02-01T12:31:59.365Z,158416,iPKLhLSMmI,incremental,jednostavno-test,679df971131ae225e46b4282,participant,hcpib7hgm6m66k0j,,,mousedown,"Što, učitelj je pitao, kome treba ponovno objasniti?",Učitelj je pitao kome treba ponovno objasniti novo pravilo..,iq,0,36,5,ob_indir,ob_dir + ob_indir,interrogative pronouns
,Sequence,flow.Sequence,2_12,,,,,,completion,6627.399999999616,151750.30000000075,151749.498,151766.2,158393.59999999963,158394.19999999925,2025-02-01T12:31:59.366Z,158416,iPKLhLSMmI,incremental,jednostavno-test,679df971131ae225e46b4282,participant,hcpib7hgm6m66k0j,,,,"Što, učitelj je pitao, kome treba ponovno objasniti?",Učitelj je pitao kome treba ponovno objasniti novo pravilo..,iq,0,36,5,ob_indir,ob_dir + ob_indir,interrogative pronouns
,context,canvas.Screen,2_13_0_0,,,,,,response,1588.5,158394.40000000037,158399.4,158416,160004.5,160004.90000000037,2025-02-01T12:32:00.976Z,160032.6,iPKLhLSMmI,incremental,jednostavno-test,679df971131ae225e46b4282,participant,hcpib7hgm6m66k0j,,,click,Koliko piva Ivan žali što je prolio?,Ivan žali što je prolio 3 litre piva.,fac,,,33,ad_measure,ob_dir + ad_mode + ad_measure,interrogative pronouns
,Timer frame,html.Frame,2_13_0,,,,,,,1589,158394.19999999925,158399.4,158416,160005,160005,2025-02-01T12:32:00.976Z,160032.6,iPKLhLSMmI,incremental,jednostavno-test,679df971131ae225e46b4282,participant,hcpib7hgm6m66k0j,,,,Koliko piva Ivan žali što je prolio?,Ivan žali što je prolio 3 litre piva.,fac,,,33,ad_measure,ob_dir + ad_mode + ad_measure,interrogative pronouns
,stimulus,canvas.Screen,2_13_1_0,,,,,,response,3313.7000000007392,160005.19999999925,160015.998,160032.6,163346.30000000075,163346.80000000075,2025-02-01T12:32:04.318Z,163365.7,iPKLhLSMmI,incremental,jednostavno-test,679df971131ae225e46b4282,participant,hcpib7hgm6m66k0j,,6,click @6,Koliko piva Ivan žali što je prolio?,Ivan žali što je prolio 3 litre piva.,fac,,,33,ad_measure,ob_dir + ad_mode + ad_measure,interrogative pronouns
,Timer frame,html.Frame,2_13_1,,,,,,,3314.3000000003667,160005,160015.998,160032.6,163346.90000000037,163346.90000000037,2025-02-01T12:32:04.318Z,163365.7,iPKLhLSMmI,incremental,jednostavno-test,679df971131ae225e46b4282,participant,hcpib7hgm6m66k0j,,,,Koliko piva Ivan žali što je prolio?,Ivan žali što je prolio 3 litre piva.,fac,,,33,ad_measure,ob_dir + ad_mode + ad_measure,interrogative pronouns
,inter-stimulus,canvas.Screen,2_13_2,,,,,,response,236.89999999961583,163346.90000000037,163349.266,163365.7,163602.59999999963,163603,2025-02-01T12:32:04.574Z,163615.7,iPKLhLSMmI,incremental,jednostavno-test,679df971131ae225e46b4282,participant,hcpib7hgm6m66k0j,,,mousedown,Koliko piva Ivan žali što je prolio?,Ivan žali što je prolio 3 litre piva.,fac,,,33,ad_measure,ob_dir + ad_mode + ad_measure,interrogative pronouns
,Sequence,flow.Sequence,2_13,,,,,,completion,5186.5999999996275,158394.19999999925,158399.4,158416,163602.59999999963,163603.09999999963,2025-02-01T12:32:04.574Z,163615.7,iPKLhLSMmI,incremental,jednostavno-test,679df971131ae225e46b4282,participant,hcpib7hgm6m66k0j,,,,Koliko piva Ivan žali što je prolio?,Ivan žali što je prolio 3 litre piva.,fac,,,33,ad_measure,ob_dir + ad_mode + ad_measure,interrogative pronouns
,context,canvas.Screen,2_14_0_0,,,,,,response,1412.1000000007334,163603.30000000075,163599.2,163615.7,165027.80000000075,165028.09999999963,2025-02-01T12:32:06.000Z,165049.1,iPKLhLSMmI,incremental,jednostavno-test,679df971131ae225e46b4282,participant,hcpib7hgm6m66k0j,,,click,Tražim ove slušalice koje sam pitao Antona gdje je ostavio.,Pitao sam Antona gdje je ostavio moje slušalice.,iq,0,0,16,ob,ob + ad,relative pronouns
,Timer frame,html.Frame,2_14_0,,,,,,,1412.4999999992433,163603.09999999963,163599.2,163615.7,165028.19999999925,165028.30000000075,2025-02-01T12:32:06.000Z,165049.1,iPKLhLSMmI,incremental,jednostavno-test,679df971131ae225e46b4282,participant,hcpib7hgm6m66k0j,,,,Tražim ove slušalice koje sam pitao Antona gdje je ostavio.,Pitao sam Antona gdje je ostavio moje slušalice.,iq,0,0,16,ob,ob + ad,relative pronouns
,stimulus,canvas.Screen,2_14_1_0,,,,,,response,3241.2000000007392,165028.40000000037,165032.6,165049.1,168290.30000000075,168290.80000000075,2025-02-01T12:32:09.262Z,168299.1,iPKLhLSMmI,incremental,jednostavno-test,679df971131ae225e46b4282,participant,hcpib7hgm6m66k0j,,4,click @4,Tražim ove slušalice koje sam pitao Antona gdje je ostavio.,Pitao sam Antona gdje je ostavio moje slušalice.,iq,0,0,16,ob,ob + ad,relative pronouns
,Timer frame,html.Frame,2_14_1,,,,,,,3241.8000000003667,165028.30000000075,165032.6,165049.1,168290.90000000037,168290.90000000037,2025-02-01T12:32:09.262Z,168299.1,iPKLhLSMmI,incremental,jednostavno-test,679df971131ae225e46b4282,participant,hcpib7hgm6m66k0j,,,,Tražim ove slušalice koje sam pitao Antona gdje je ostavio.,Pitao sam Antona gdje je ostavio moje slušalice.,iq,0,0,16,ob,ob + ad,relative pronouns
,inter-stimulus,canvas.Screen,2_14_2,,,,,,response,229.39999999999418,168290.90000000037,168283.398,168299.1,168528.5,168529,2025-02-01T12:32:09.500Z,168532.3,iPKLhLSMmI,incremental,jednostavno-test,679df971131ae225e46b4282,participant,hcpib7hgm6m66k0j,,,mousedown,Tražim ove slušalice koje sam pitao Antona gdje je ostavio.,Pitao sam Antona gdje je ostavio moje slušalice.,iq,0,0,16,ob,ob + ad,relative pronouns
,Sequence,flow.Sequence,2_14,,,,,,completion,4912.799999999988,163603.09999999963,163599.2,163615.7,168528.5,168529.09999999963,2025-02-01T12:32:09.500Z,168532.3,iPKLhLSMmI,incremental,jednostavno-test,679df971131ae225e46b4282,participant,hcpib7hgm6m66k0j,,,,Tražim ove slušalice koje sam pitao Antona gdje je ostavio.,Pitao sam Antona gdje je ostavio moje slušalice.,iq,0,0,16,ob,ob + ad,relative pronouns
,context,canvas.Screen,2_15_0_0,,,,,,response,1864.5000000007567,168529.30000000075,168515.766,168532.3,170396.80000000075,170397.30000000075,2025-02-01T12:32:11.369Z,170415.6,iPKLhLSMmI,incremental,jednostavno-test,679df971131ae225e46b4282,participant,hcpib7hgm6m66k0j,,,click,Pronašao sam tu stvar koju znam da je Marina izgubila.,Znam da je Marina izgubila ključeve.,fac,0,,41,ob,ob + ob,non-interrogative component
,Timer frame,html.Frame,2_15_0,,,,,,,1865.2000000000116,168529.09999999963,168515.766,168532.3,170397.5,170397.5,2025-02-01T12:32:11.369Z,170415.6,iPKLhLSMmI,incremental,jednostavno-test,679df971131ae225e46b4282,participant,hcpib7hgm6m66k0j,,,,Pronašao sam tu stvar koju znam da je Marina izgubila.,Znam da je Marina izgubila ključeve.,fac,0,,41,ob,ob + ob,non-interrogative component
,stimulus,canvas.Screen,2_15_1_0,,,,,,response,2867.2000000007392,170397.59999999963,170399.1,170415.6,173282.80000000075,173283.30000000075,2025-02-01T12:32:14.255Z,173298.9,iPKLhLSMmI,incremental,jednostavno-test,679df971131ae225e46b4282,participant,hcpib7hgm6m66k0j,,5,click @5,Pronašao sam tu stvar koju znam da je Marina izgubila.,Znam da je Marina izgubila ključeve.,fac,0,,41,ob,ob + ob,non-interrogative component
,Timer frame,html.Frame,2_15_1,,,,,,,2867.7000000007392,170397.5,170399.1,170415.6,173283.30000000075,173283.30000000075,2025-02-01T12:32:14.255Z,173298.9,iPKLhLSMmI,incremental,jednostavno-test,679df971131ae225e46b4282,participant,hcpib7hgm6m66k0j,,,,Pronašao sam tu stvar koju znam da je Marina izgubila.,Znam da je Marina izgubila ključeve.,fac,0,,41,ob,ob + ob,non-interrogative component
,inter-stimulus,canvas.Screen,2_15_2,,,,,,response,223.79999999926076,173283.40000000037,173282.33,173298.9,173522.69999999925,173523.30000000075,2025-02-01T12:32:14.495Z,173548.9,iPKLhLSMmI,incremental,jednostavno-test,679df971131ae225e46b4282,participant,hcpib7hgm6m66k0j,,,mousedown,Pronašao sam tu stvar koju znam da je Marina izgubila.,Znam da je Marina izgubila ključeve.,fac,0,,41,ob,ob + ob,non-interrogative component
,Sequence,flow.Sequence,2_15,,,,,,completion,4990.399999999267,168529.09999999963,168515.766,168532.3,173522.69999999925,173523.40000000037,2025-02-01T12:32:14.495Z,173548.9,iPKLhLSMmI,incremental,jednostavno-test,679df971131ae225e46b4282,participant,hcpib7hgm6m66k0j,,,,Pronašao sam tu stvar koju znam da je Marina izgubila.,Znam da je Marina izgubila ključeve.,fac,0,,41,ob,ob + ob,non-interrogative component
,context,canvas.Screen,2_16_0_0,,,,,,response,1549.0000000003783,173523.5,173532.2,173548.9,175097.90000000037,175098.40000000037,2025-02-01T12:32:16.070Z,175132.1,iPKLhLSMmI,incremental,jednostavno-test,679df971131ae225e46b4282,participant,hcpib7hgm6m66k0j,,,click,Koliko slonova Ivo je rekao da je vidio na safariju?,Ivo je rekao da je vidio dva slona na safariju.,fac,,,36,ad_measure,ob_dir + ad_mode + ad_measure,interrogative pronouns
,Timer frame,html.Frame,2_16_0,,,,,,,1549.5000000003783,173523.5,173532.2,173548.9,175098.40000000037,175098.5,2025-02-01T12:32:16.070Z,175132.1,iPKLhLSMmI,incremental,jednostavno-test,679df971131ae225e46b4282,participant,hcpib7hgm6m66k0j,,,,Koliko slonova Ivo je rekao da je vidio na safariju?,Ivo je rekao da je vidio dva slona na safariju.,fac,,,36,ad_measure,ob_dir + ad_mode + ad_measure,interrogative pronouns
,stimulus,canvas.Screen,2_16_1_0,,,,,,response,1803.7000000007392,175098.80000000075,175115.664,175132.1,176935.80000000075,176936.19999999925,2025-02-01T12:32:17.908Z,176948.7,iPKLhLSMmI,incremental,jednostavno-test,679df971131ae225e46b4282,participant,hcpib7hgm6m66k0j,,7,click @7,Koliko slonova Ivo je rekao da je vidio na safariju?,Ivo je rekao da je vidio dva slona na safariju.,fac,,,36,ad_measure,ob_dir + ad_mode + ad_measure,interrogative pronouns
,Timer frame,html.Frame,2_16_1,,,,,,,1804.2000000007392,175098.59999999963,175115.664,175132.1,176936.30000000075,176936.40000000037,2025-02-01T12:32:17.908Z,176948.7,iPKLhLSMmI,incremental,jednostavno-test,679df971131ae225e46b4282,participant,hcpib7hgm6m66k0j,,,,Koliko slonova Ivo je rekao da je vidio na safariju?,Ivo je rekao da je vidio dva slona na safariju.,fac,,,36,ad_measure,ob_dir + ad_mode + ad_measure,interrogative pronouns
,inter-stimulus,canvas.Screen,2_16_2,,,,,,response,308.29999999998836,176936.40000000037,176932.2,176948.7,177257,177257.59999999963,2025-02-01T12:32:18.229Z,177265.4,iPKLhLSMmI,incremental,jednostavno-test,679df971131ae225e46b4282,participant,hcpib7hgm6m66k0j,,,mousedown,Koliko slonova Ivo je rekao da je vidio na safariju?,Ivo je rekao da je vidio dva slona na safariju.,fac,,,36,ad_measure,ob_dir + ad_mode + ad_measure,interrogative pronouns
,Sequence,flow.Sequence,2_16,,,,,,completion,3708.100000000006,173523.40000000037,173532.2,173548.9,177257,177257.69999999925,2025-02-01T12:32:18.229Z,177265.4,iPKLhLSMmI,incremental,jednostavno-test,679df971131ae225e46b4282,participant,hcpib7hgm6m66k0j,,,,Koliko slonova Ivo je rekao da je vidio na safariju?,Ivo je rekao da je vidio dva slona na safariju.,fac,,,36,ad_measure,ob_dir + ad_mode + ad_measure,interrogative pronouns
,context,canvas.Screen,2_17_0_0,,,,,,response,2239.7999999992608,177258,177248.866,177265.4,179505.19999999925,179505.59999999963,2025-02-01T12:32:20.477Z,179532,iPKLhLSMmI,incremental,jednostavno-test,679df971131ae225e46b4282,participant,hcpib7hgm6m66k0j,,,click,Gdje moj bogati ujak drži svoj novac?,Moj bogati ujak drži svoj novac u švicarskoj banci.,gf,,,47,filler,filler,filler
,Timer frame,html.Frame,2_17_0,,,,,,,2240.2999999992608,177257.69999999925,177248.866,177265.4,179505.69999999925,179505.69999999925,2025-02-01T12:32:20.477Z,179532,iPKLhLSMmI,incremental,jednostavno-test,679df971131ae225e46b4282,participant,hcpib7hgm6m66k0j,,,,Gdje moj bogati ujak drži svoj novac?,Moj bogati ujak drži svoj novac u švicarskoj banci.,gf,,,47,filler,filler,filler
,stimulus,canvas.Screen,2_17_1_0,,,,,,response,1564.699999999255,179505.80000000075,179515.498,179532,181096.69999999925,181097.09999999963,2025-02-01T12:32:22.069Z,181098.6,iPKLhLSMmI,incremental,jednostavno-test,679df971131ae225e46b4282,participant,hcpib7hgm6m66k0j,,7,click @7,Gdje moj bogati ujak drži svoj novac?,Moj bogati ujak drži svoj novac u švicarskoj banci.,gf,,,47,filler,filler,filler
,Timer frame,html.Frame,2_17_1,,,,,,,1565.300000000745,179505.69999999925,179515.498,179532,181097.30000000075,181097.30000000075,2025-02-01T12:32:22.069Z,181098.6,iPKLhLSMmI,incremental,jednostavno-test,679df971131ae225e46b4282,participant,hcpib7hgm6m66k0j,,,,Gdje moj bogati ujak drži svoj novac?,Moj bogati ujak drži svoj novac u švicarskoj banci.,gf,,,47,filler,filler,filler
,inter-stimulus,canvas.Screen,2_17_2,,,,,,response,240.89999999999418,181097.40000000037,181082.064,181098.6,181339.5,181339.90000000037,2025-02-01T12:32:22.311Z,181348.6,iPKLhLSMmI,incremental,jednostavno-test,679df971131ae225e46b4282,participant,hcpib7hgm6m66k0j,,,mousedown,Gdje moj bogati ujak drži svoj novac?,Moj bogati ujak drži svoj novac u švicarskoj banci.,gf,,,47,filler,filler,filler
,Sequence,flow.Sequence,2_17,,,,,,completion,4074.100000000006,177257.69999999925,177248.866,177265.4,181339.5,181340,2025-02-01T12:32:22.311Z,181348.6,iPKLhLSMmI,incremental,jednostavno-test,679df971131ae225e46b4282,participant,hcpib7hgm6m66k0j,,,,Gdje moj bogati ujak drži svoj novac?,Moj bogati ujak drži svoj novac u švicarskoj banci.,gf,,,47,filler,filler,filler
,context,canvas.Screen,2_18_0_0,,,,,,response,1667.8999999999942,181340.19999999925,181332.1,181348.6,183016.5,183017,2025-02-01T12:32:23.988Z,183032,iPKLhLSMmI,incremental,jednostavno-test,679df971131ae225e46b4282,participant,hcpib7hgm6m66k0j,,,click,Kogo je Ivan požalio što je pozvao na zabavu?,Ivan je požalio što je šefa pozvao na zabavu.,fac,,,31,ob_dir,ob_dir + ad_mode + ad_measure,interrogative pronouns
,Timer frame,html.Frame,2_18_0,,,,,,,1668.4999999996217,181340.09999999963,181332.1,181348.6,183017.09999999963,183017.09999999963,2025-02-01T12:32:23.989Z,183032,iPKLhLSMmI,incremental,jednostavno-test,679df971131ae225e46b4282,participant,hcpib7hgm6m66k0j,,,,Kogo je Ivan požalio što je pozvao na zabavu?,Ivan je požalio što je šefa pozvao na zabavu.,fac,,,31,ob_dir,ob_dir + ad_mode + ad_measure,interrogative pronouns
,stimulus,canvas.Screen,2_18_1_0,,,,,,response,2535.9000000003725,183017.40000000037,183015.3,183032,185567.90000000037,185568.40000000037,2025-02-01T12:32:26.540Z,185598.5,iPKLhLSMmI,incremental,jednostavno-test,679df971131ae225e46b4282,participant,hcpib7hgm6m66k0j,,4,click @4,Kogo je Ivan požalio što je pozvao na zabavu?,Ivan je požalio što je šefa pozvao na zabavu.,fac,,,31,ob_dir,ob_dir + ad_mode + ad_measure,interrogative pronouns
,Timer frame,html.Frame,2_18_1,,,,,,,2536.4000000003725,183017.19999999925,183015.3,183032,185568.40000000037,185568.5,2025-02-01T12:32:26.540Z,185598.5,iPKLhLSMmI,incremental,jednostavno-test,679df971131ae225e46b4282,participant,hcpib7hgm6m66k0j,,,,Kogo je Ivan požalio što je pozvao na zabavu?,Ivan je požalio što je šefa pozvao na zabavu.,fac,,,31,ob_dir,ob_dir + ad_mode + ad_measure,interrogative pronouns
,inter-stimulus,canvas.Screen,2_18_2,,,,,,response,263.80000000074506,185568.5,185582,185598.5,185862.30000000075,185862.80000000075,2025-02-01T12:32:26.834Z,185881.8,iPKLhLSMmI,incremental,jednostavno-test,679df971131ae225e46b4282,participant,hcpib7hgm6m66k0j,,,mousedown,Kogo je Ivan požalio što je pozvao na zabavu?,Ivan je požalio što je šefa pozvao na zabavu.,fac,,,31,ob_dir,ob_dir + ad_mode + ad_measure,interrogative pronouns
,Sequence,flow.Sequence,2_18,,,,,,completion,4513.700000000739,181340.09999999963,181332.1,181348.6,185862.30000000075,185862.90000000037,2025-02-01T12:32:26.834Z,185881.8,iPKLhLSMmI,incremental,jednostavno-test,679df971131ae225e46b4282,participant,hcpib7hgm6m66k0j,,,,Kogo je Ivan požalio što je pozvao na zabavu?,Ivan je požalio što je šefa pozvao na zabavu.,fac,,,31,ob_dir,ob_dir + ad_mode + ad_measure,interrogative pronouns
,context,canvas.Screen,2_19_0_0,,,,,,response,1785.8999999992666,185863.09999999963,185865.3,185881.8,187667.69999999925,187668.09999999963,2025-02-01T12:32:28.640Z,187698.6,iPKLhLSMmI,incremental,jednostavno-test,679df971131ae225e46b4282,participant,hcpib7hgm6m66k0j,,,click,Kog moja obitelj nije povela na odmor u Bugarsku?,Moja obitelj nije povela mog brata na odmor u Bugarsku.,neg,,,20,ob,ob + ob,interrogative pronouns
,Timer frame,html.Frame,2_19_0,,,,,,,1786.5000000007567,185863,185865.3,185881.8,187668.30000000075,187668.30000000075,2025-02-01T12:32:28.640Z,187698.6,iPKLhLSMmI,incremental,jednostavno-test,679df971131ae225e46b4282,participant,hcpib7hgm6m66k0j,,,,Kog moja obitelj nije povela na odmor u Bugarsku?,Moja obitelj nije povela mog brata na odmor u Bugarsku.,neg,,,20,ob,ob + ob,interrogative pronouns
,stimulus,canvas.Screen,2_19_1_0,,,,,,response,3547.3000000003667,187668.40000000037,187681.8,187698.6,191245.90000000037,191246.5,2025-02-01T12:32:32.218Z,191248.3,iPKLhLSMmI,incremental,jednostavno-test,679df971131ae225e46b4282,participant,hcpib7hgm6m66k0j,,7,click @7,Kog moja obitelj nije povela na odmor u Bugarsku?,Moja obitelj nije povela mog brata na odmor u Bugarsku.,neg,,,20,ob,ob + ob,interrogative pronouns
,Timer frame,html.Frame,2_19_1,,,,,,,3547.9999999996217,187668.30000000075,187681.8,187698.6,191246.59999999963,191246.59999999963,2025-02-01T12:32:32.218Z,191248.3,iPKLhLSMmI,incremental,jednostavno-test,679df971131ae225e46b4282,participant,hcpib7hgm6m66k0j,,,,Kog moja obitelj nije povela na odmor u Bugarsku?,Moja obitelj nije povela mog brata na odmor u Bugarsku.,neg,,,20,ob,ob + ob,interrogative pronouns
,inter-stimulus,canvas.Screen,2_19_2,,,,,,response,318.3999999992666,191246.59999999963,191231.7,191248.3,191566.69999999925,191567.19999999925,2025-02-01T12:32:32.539Z,191598.3,iPKLhLSMmI,incremental,jednostavno-test,679df971131ae225e46b4282,participant,hcpib7hgm6m66k0j,,,mousedown,Kog moja obitelj nije povela na odmor u Bugarsku?,Moja obitelj nije povela mog brata na odmor u Bugarsku.,neg,,,20,ob,ob + ob,interrogative pronouns
,Sequence,flow.Sequence,2_19,,,,,,completion,5684.899999999267,185863,185865.3,185881.8,191566.69999999925,191567.40000000037,2025-02-01T12:32:32.539Z,191598.3,iPKLhLSMmI,incremental,jednostavno-test,679df971131ae225e46b4282,participant,hcpib7hgm6m66k0j,,,,Kog moja obitelj nije povela na odmor u Bugarsku?,Moja obitelj nije povela mog brata na odmor u Bugarsku.,neg,,,20,ob,ob + ob,interrogative pronouns
,context,canvas.Screen,2_20_0_0,,,,,,response,2240.3999999992666,191567.5,191581.9,191598.3,193838.69999999925,193839.19999999925,2025-02-01T12:32:34.811Z,193848.3,iPKLhLSMmI,incremental,jednostavno-test,679df971131ae225e46b4282,participant,hcpib7hgm6m66k0j,,,click,Uvidjeli smo tu zgradu u kojoj smo pitlai tko radi.,Pitali smo tko radi u tom velikom uredu.,iq,,,13,ad,sub + ad,relative pronouns
,Timer frame,html.Frame,2_20_0,,,,,,,2241.0000000007567,191567.40000000037,191581.9,191598.3,193839.30000000075,193839.30000000075,2025-02-01T12:32:34.811Z,193848.3,iPKLhLSMmI,incremental,jednostavno-test,679df971131ae225e46b4282,participant,hcpib7hgm6m66k0j,,,,Uvidjeli smo tu zgradu u kojoj smo pitlai tko radi.,Pitali smo tko radi u tom velikom uredu.,iq,,,13,ad,sub + ad,relative pronouns
,stimulus,canvas.Screen,2_20_1_0,,,,,,response,2673.600000000384,193839.5,193831.698,193848.3,196521.90000000037,196522.40000000037,2025-02-01T12:32:37.494Z,196531.6,iPKLhLSMmI,incremental,jednostavno-test,679df971131ae225e46b4282,participant,hcpib7hgm6m66k0j,,2,click @2,Uvidjeli smo tu zgradu u kojoj smo pitlai tko radi.,Pitali smo tko radi u tom velikom uredu.,iq,,,13,ad,sub + ad,relative pronouns
,Timer frame,html.Frame,2_20_1,,,,,,,2674.2000000000116,193839.40000000037,193831.698,193848.3,196522.5,196522.5,2025-02-01T12:32:37.494Z,196531.6,iPKLhLSMmI,incremental,jednostavno-test,679df971131ae225e46b4282,participant,hcpib7hgm6m66k0j,,,,Uvidjeli smo tu zgradu u kojoj smo pitlai tko radi.,Pitali smo tko radi u tom velikom uredu.,iq,,,13,ad,sub + ad,relative pronouns
,inter-stimulus,canvas.Screen,2_20_2,,,,,,response,232.89999999999418,196522.59999999963,196515,196531.6,196764.5,196765,2025-02-01T12:32:37.736Z,196798.5,iPKLhLSMmI,incremental,jednostavno-test,679df971131ae225e46b4282,participant,hcpib7hgm6m66k0j,,,mousedown,Uvidjeli smo tu zgradu u kojoj smo pitlai tko radi.,Pitali smo tko radi u tom velikom uredu.,iq,,,13,ad,sub + ad,relative pronouns
,Sequence,flow.Sequence,2_20,,,,,,completion,5166.200000000012,191567.40000000037,191581.9,191598.3,196764.5,196765.09999999963,2025-02-01T12:32:37.737Z,196798.5,iPKLhLSMmI,incremental,jednostavno-test,679df971131ae225e46b4282,participant,hcpib7hgm6m66k0j,,,,Uvidjeli smo tu zgradu u kojoj smo pitlai tko radi.,Pitali smo tko radi u tom velikom uredu.,iq,,,13,ad,sub + ad,relative pronouns
,context,canvas.Screen,2_21_0_0,,,,,,response,1864.4000000003725,196765.30000000075,196781.6,196798.5,198662.90000000037,198663.30000000075,2025-02-01T12:32:39.635Z,198664.8,iPKLhLSMmI,incremental,jednostavno-test,679df971131ae225e46b4282,participant,hcpib7hgm6m66k0j,,,click,Gdje je djeca?,Moj mlađi brat i sestra su bili u dvorištu.,nf,,,55,filler,filler,filler
,Timer frame,html.Frame,2_21_0,,,,,,,1865,196765.09999999963,196781.6,196798.5,198663.5,198663.5,2025-02-01T12:32:39.635Z,198664.8,iPKLhLSMmI,incremental,jednostavno-test,679df971131ae225e46b4282,participant,hcpib7hgm6m66k0j,,,,Gdje je djeca?,Moj mlađi brat i sestra su bili u dvorištu.,nf,,,55,filler,filler,filler
"{""labjs_version"":""20.2.4"",""labjs_build"":{""flavor"":""production"",""commit"":""f5b4a49f956347addd546a832a3327688c2c0fef""},""location"":""https://open-lab.online/test/jednostavno-test/679e139d131ae225e46b42e3"",""userAgent"":""Mozilla/5.0 (Windows NT 10.0; Win64; x64) AppleWebKit/537.36 (KHTML, like Gecko) Chrome/132.0.0.0 Safari/537.36"",""platform"":""Win32"",""language"":""en"",""locale"":""en-US"",""timeZone"":""Europe/Zagreb"",""timezoneOffset"":-60,""screen_width"":1920,""screen_height"":1200,""scroll_width"":1920,""scroll_height"":1017,""window_innerWidth"":1920,""window_innerHeight"":1065,""devicePixelRatio"":1}",Demography form,html.Form,0,50,,mother-tongue,,,form submission,9904,416.59999999962747,529.8,546.5,10450.5,10450.799999998882,2025-02-01T12:35:15.570Z,10462.8,iPKLhLSMmI,incremental,jednostavno-test,679df971131ae225e46b4282,participant,hcpib7hgm6m66k0j,725340,,,,,,,,,,,
,context,canvas.Screen,1_0,,,,,,response,2568.299999999628,10450.89999999851,10446.8,10462.8,13031.099999999627,13031.599999999627,2025-02-01T12:35:18.151Z,13046.1,iPKLhLSMmI,incremental,jednostavno-test,679df971131ae225e46b4282,participant,hcpib7hgm6m66k0j,,,click,,,,,,,,,
,stimulus,canvas.Screen,1_1,,,,,,response,9925.79999999851,13031.599999999627,13029.624,13046.1,22971.89999999851,22972.5,2025-02-01T12:35:28.092Z,22979.4,iPKLhLSMmI,incremental,jednostavno-test,679df971131ae225e46b4282,participant,hcpib7hgm6m66k0j,,7,click @7,,,,,,,,,
,inter-stimulus,canvas.Screen,1_2,,,,,,response,823.9999999985084,22972.5,22964.7,22979.4,23803.39999999851,23803.89999999851,2025-02-01T12:35:28.923Z,23829.2,iPKLhLSMmI,incremental,jednostavno-test,679df971131ae225e46b4282,participant,hcpib7hgm6m66k0j,,,mousedown,,,,,,,,,
,context,canvas.Screen,1_3,,,,,,response,1835.2999999999993,23804,23812.632,23829.2,25664.5,25665.099999999627,2025-02-01T12:35:30.784Z,25679.2,iPKLhLSMmI,incremental,jednostavno-test,679df971131ae225e46b4282,participant,hcpib7hgm6m66k0j,,,click,,,,,,,,,
,stimulus,canvas.Screen,1_4,,,,,,response,5093.399999999627,25665.099999999627,25662.612,25679.2,30772.599999999627,30773.299999998882,2025-02-01T12:35:35.892Z,30779.1,iPKLhLSMmI,incremental,jednostavno-test,679df971131ae225e46b4282,participant,hcpib7hgm6m66k0j,,1,click @1,,,,,,,,,
,inter-stimulus,canvas.Screen,1_5,,,,,,response,376.29999999851134,30773.299999998882,30770.8,30779.1,31155.39999999851,31155.799999998882,2025-02-01T12:35:36.275Z,31179,iPKLhLSMmI,incremental,jednostavno-test,679df971131ae225e46b4282,participant,hcpib7hgm6m66k0j,,,mousedown,,,,,,,,,
,context,canvas.Screen,1_6,,,,,,response,1341.199999999255,31155.89999999851,31162.418,31179,32520.199999999255,32520.699999999255,2025-02-01T12:35:37.640Z,32528.8,iPKLhLSMmI,incremental,jednostavno-test,679df971131ae225e46b4282,participant,hcpib7hgm6m66k0j,,,click,,,,,,,,,
"{""labjs_version"":""20.2.4"",""labjs_build"":{""flavor"":""production"",""commit"":""f5b4a49f956347addd546a832a3327688c2c0fef""},""location"":""https://open-lab.online/test/jednostavno-test/679e139d131ae225e46b42e3"",""userAgent"":""Mozilla/5.0 (Windows NT 10.0; Win64; x64) AppleWebKit/537.36 (KHTML, like Gecko) Chrome/132.0.0.0 Safari/537.36"",""platform"":""Win32"",""language"":""en"",""locale"":""en-US"",""timeZone"":""Europe/Zagreb"",""timezoneOffset"":-60,""screen_width"":1920,""screen_height"":1200,""scroll_width"":1920,""scroll_height"":1017,""window_innerWidth"":1920,""window_innerHeight"":1065,""devicePixelRatio"":1}",Demography form,html.Form,0,100,,mother-tongue,,,form submission,6368.600000000372,413.7000000011176,602.1,618.8,6987.4000000003725,6987.700000001118,2025-02-01T12:37:56.663Z,7002,iPKLhLSMmI,incremental,jednostavno-test,679df971131ae225e46b4282,participant,hcpib7hgm6m66k0j,725340,,,,,,,,,,,
,context,canvas.Screen,1_0,,,,,,response,546,6987.9000000003725,6985.362,7002,7548,7548.700000001118,2025-02-01T12:37:57.224Z,7552,iPKLhLSMmI,incremental,jednostavno-test,679df971131ae225e46b4282,participant,hcpib7hgm6m66k0j,,,click,,,,,,,,,
,stimulus,canvas.Screen,1_1,,,,,,response,762.8000000007451,7548.800000000745,7535.4,7552,8314.800000000745,8315.200000001118,2025-02-01T12:37:57.991Z,8335.2,iPKLhLSMmI,incremental,jednostavno-test,679df971131ae225e46b4282,participant,hcpib7hgm6m66k0j,,7,click @7,,,,,,,,,
,inter-stimulus,canvas.Screen,1_2,,,,,,response,197.60000000074433,8315.200000001118,8318.766,8335.2,8532.800000000745,8533.200000001118,2025-02-01T12:37:58.209Z,8552,iPKLhLSMmI,incremental,jednostavno-test,679df971131ae225e46b4282,participant,hcpib7hgm6m66k0j,,,mousedown,,,,,,,,,
,context,canvas.Screen,1_3,,,,,,response,355.7000000011176,8533.300000000745,8535.298,8552,8907.700000001118,8908.10000000149,2025-02-01T12:37:58.584Z,8935.2,iPKLhLSMmI,incremental,jednostavno-test,679df971131ae225e46b4282,participant,hcpib7hgm6m66k0j,,,click,,,,,,,,,
,stimulus,canvas.Screen,1_4,,,,,,response,1521.9000000014894,8908.200000001118,8918.6,8935.2,10457.10000000149,10457.700000001118,2025-02-01T12:38:00.133Z,10468.5,iPKLhLSMmI,incremental,jednostavno-test,679df971131ae225e46b4282,participant,hcpib7hgm6m66k0j,,1,click @1,,,,,,,,,
,inter-stimulus,canvas.Screen,1_5,,,,,,response,198.30000000074506,10457.700000001118,10452,10468.5,10666.800000000745,10667.300000000745,2025-02-01T12:38:00.343Z,10685.2,iPKLhLSMmI,incremental,jednostavno-test,679df971131ae225e46b4282,participant,hcpib7hgm6m66k0j,,,mousedown,,,,,,,,,
,context,canvas.Screen,1_6,,,,,,response,649.0000000011169,10667.5,10668.598,10685.2,11334.200000001118,11334.60000000149,2025-02-01T12:38:01.010Z,11352.5,iPKLhLSMmI,incremental,jednostavno-test,679df971131ae225e46b4282,participant,hcpib7hgm6m66k0j,,,click,,,,,,,,,
,stimulus,canvas.Screen,1_7_0,,,,,,response,1933.300000000745,11334.800000000745,11335.248,11352.5,13285.800000000745,13286.60000000149,2025-02-01T12:38:02.962Z,13318.5,iPKLhLSMmI,incremental,jednostavno-test,679df971131ae225e46b4282,participant,hcpib7hgm6m66k0j,,6,click @6,,,,,,,,,
,Timer frame,html.Frame,1_7,,,,,,,1934.2000000011176,11334.60000000149,11335.248,11352.5,13286.700000001118,13286.800000000745,2025-02-01T12:38:02.962Z,13318.5,iPKLhLSMmI,incremental,jednostavno-test,679df971131ae225e46b4282,participant,hcpib7hgm6m66k0j,,,,,,,,,,,,
,inter-stimulus,canvas.Screen,1_8,,,,,,response,765.7000000011176,13286.800000000745,13301.898,13318.5,14084.200000001118,14084.700000001118,2025-02-01T12:38:03.760Z,14102.5,iPKLhLSMmI,incremental,jednostavno-test,679df971131ae225e46b4282,participant,hcpib7hgm6m66k0j,,,mousedown,,,,,,,,,
,First stimuli,flow.Sequence,1,,,,,,completion,7082.200000001118,6987.9000000003725,6985.362,7002,14084.200000001118,14084.800000000745,2025-02-01T12:38:03.760Z,14102.5,iPKLhLSMmI,incremental,jednostavno-test,679df971131ae225e46b4282,participant,hcpib7hgm6m66k0j,,,,,,,,,,,,
,context,canvas.Screen,2_0_0_0,,,,,,response,1951.9000000003725,14085,14085.26,14102.5,16054.400000000373,16054.800000000745,2025-02-01T12:38:05.730Z,16068.4,iPKLhLSMmI,incremental,jednostavno-test,679df971131ae225e46b4282,participant,hcpib7hgm6m66k0j,,,click,"Kako, Klara milsi, da se Petar tog dana vozio kući?",Klara misli da se Petar tog dana vrlo brzo vozio kući.,fac,,,40,ad_mode,ob + ad_mode,interrogative pronouns
,Timer frame,html.Frame,2_0_0,,,,,,,1952.4000000003725,14085,14085.26,14102.5,16054.900000000373,16055,2025-02-01T12:38:05.731Z,16068.4,iPKLhLSMmI,incremental,jednostavno-test,679df971131ae225e46b4282,participant,hcpib7hgm6m66k0j,,,,"Kako, Klara milsi, da se Petar tog dana vozio kući?",Klara misli da se Petar tog dana vrlo brzo vozio kući.,fac,,,40,ad_mode,ob + ad_mode,interrogative pronouns
,stimulus,canvas.Screen,2_0_1_0,,,,,,response,10191.300000001118,16055.10000000149,16051.9,16068.4,26259.700000001118,26260.200000001118,2025-02-01T12:38:15.936Z,26284.8,iPKLhLSMmI,incremental,jednostavno-test,679df971131ae225e46b4282,participant,hcpib7hgm6m66k0j,,5,click @5,"Kako, Klara milsi, da se Petar tog dana vozio kući?",Klara misli da se Petar tog dana vrlo brzo vozio kući.,fac,,,40,ad_mode,ob + ad_mode,interrogative pronouns
,Timer frame,html.Frame,2_0_1,,,,,,,10191.800000001118,16055,16051.9,16068.4,26260.200000001118,26260.300000000745,2025-02-01T12:38:15.936Z,26284.8,iPKLhLSMmI,incremental,jednostavno-test,679df971131ae225e46b4282,participant,hcpib7hgm6m66k0j,,,,"Kako, Klara milsi, da se Petar tog dana vozio kući?",Klara misli da se Petar tog dana vrlo brzo vozio kući.,fac,,,40,ad_mode,ob + ad_mode,interrogative pronouns
,inter-stimulus,canvas.Screen,2_0_2,,,,,,response,111855.30000000149,26260.400000000373,26268.2,26284.8,138140.1000000015,138140.80000000075,2025-02-01T12:40:07.816Z,138148.5,iPKLhLSMmI,incremental,jednostavno-test,679df971131ae225e46b4282,participant,hcpib7hgm6m66k0j,,,mousedown,"Kako, Klara milsi, da se Petar tog dana vozio kući?",Klara misli da se Petar tog dana vrlo brzo vozio kući.,fac,,,40,ad_mode,ob + ad_mode,interrogative pronouns
,Sequence,flow.Sequence,2_0,,,,,,completion,124037.60000000149,14084.900000000373,14085.26,14102.5,138140.1000000015,138140.90000000037,2025-02-01T12:40:07.817Z,138148.5,iPKLhLSMmI,incremental,jednostavno-test,679df971131ae225e46b4282,participant,hcpib7hgm6m66k0j,,,,"Kako, Klara milsi, da se Petar tog dana vozio kući?",Klara misli da se Petar tog dana vrlo brzo vozio kući.,fac,,,40,ad_mode,ob + ad_mode,interrogative pronouns
,context,canvas.Screen,2_1_0_0,,,,,,response,2650,138141.20000000112,138131.796,138148.5,140798.5,140799.20000000112,2025-02-01T12:40:10.475Z,140831.7,iPKLhLSMmI,incremental,jednostavno-test,679df971131ae225e46b4282,participant,hcpib7hgm6m66k0j,,,click,Gdje Tvrtko neće moći provesti vikend s obitelji?,Tvrtko neće moći provesti vikend s obitelji na Bahamima.,neg,,,22,ad_place,ad_time + ad_place,interrogative pronouns
,Timer frame,html.Frame,2_1_0,,,,,,,2650.7000000011176,138141,138131.796,138148.5,140799.20000000112,140799.20000000112,2025-02-01T12:40:10.475Z,140831.7,iPKLhLSMmI,incremental,jednostavno-test,679df971131ae225e46b4282,participant,hcpib7hgm6m66k0j,,,,Gdje Tvrtko neće moći provesti vikend s obitelji?,Tvrtko neće moći provesti vikend s obitelji na Bahamima.,neg,,,22,ad_place,ad_time + ad_place,interrogative pronouns
,stimulus,canvas.Screen,2_1_1_0,,,,,,response,3173.4000000014785,140799.40000000037,140815.1,140831.7,144005.1000000015,144005.5,2025-02-01T12:40:13.681Z,144031.5,iPKLhLSMmI,incremental,jednostavno-test,679df971131ae225e46b4282,participant,hcpib7hgm6m66k0j,,7,click @7,Gdje Tvrtko neće moći provesti vikend s obitelji?,Tvrtko neće moći provesti vikend s obitelji na Bahamima.,neg,,,22,ad_place,ad_time + ad_place,interrogative pronouns
,Timer frame,html.Frame,2_1_1,,,,,,,3173.7999999999884,140799.30000000075,140815.1,140831.7,144005.5,144005.5,2025-02-01T12:40:13.681Z,144031.5,iPKLhLSMmI,incremental,jednostavno-test,679df971131ae225e46b4282,participant,hcpib7hgm6m66k0j,,,,Gdje Tvrtko neće moći provesti vikend s obitelji?,Tvrtko neće moći provesti vikend s obitelji na Bahamima.,neg,,,22,ad_place,ad_time + ad_place,interrogative pronouns
,inter-stimulus,canvas.Screen,2_1_2,,,,,,response,359.1000000014901,144005.6000000015,144015.066,144031.5,144390.6000000015,144390.90000000037,2025-02-01T12:40:14.067Z,144414.9,iPKLhLSMmI,incremental,jednostavno-test,679df971131ae225e46b4282,participant,hcpib7hgm6m66k0j,,,mousedown,Gdje Tvrtko neće moći provesti vikend s obitelji?,Tvrtko neće moći provesti vikend s obitelji na Bahamima.,neg,,,22,ad_place,ad_time + ad_place,interrogative pronouns
,Sequence,flow.Sequence,2_1,,,,,,completion,6242.10000000149,138141,138131.796,138148.5,144390.6000000015,144391.1000000015,2025-02-01T12:40:14.067Z,144414.9,iPKLhLSMmI,incremental,jednostavno-test,679df971131ae225e46b4282,participant,hcpib7hgm6m66k0j,,,,Gdje Tvrtko neće moći provesti vikend s obitelji?,Tvrtko neće moći provesti vikend s obitelji na Bahamima.,neg,,,22,ad_place,ad_time + ad_place,interrogative pronouns
,context,canvas.Screen,2_2_0_0,,,,,,response,705.7000000014959,144391.1000000015,144398.298,144414.9,145120.6000000015,145121.20000000112,2025-02-01T12:40:14.797Z,145148.2,iPKLhLSMmI,incremental,jednostavno-test,679df971131ae225e46b4282,participant,hcpib7hgm6m66k0j,,,click,Pronašao sam taj uređaj koji mislim da je Marina izgubila.,Mislim da je Marina izgubila laptop.,fac,,,42,ob,ob + ob,non-interrogative component
,Timer frame,html.Frame,2_2_0,,,,,,,706.3000000011234,144391.1000000015,144398.298,144414.9,145121.20000000112,145121.20000000112,2025-02-01T12:40:14.797Z,145148.2,iPKLhLSMmI,incremental,jednostavno-test,679df971131ae225e46b4282,participant,hcpib7hgm6m66k0j,,,,Pronašao sam taj uređaj koji mislim da je Marina izgubila.,Mislim da je Marina izgubila laptop.,fac,,,42,ob,ob + ob,non-interrogative component
,stimulus,canvas.Screen,2_2_1_0,,,,,,timeout,10999.799999999988,145121.40000000037,145131.666,145148.2,156131.2,156132.6000000015,2025-02-01T12:40:25.808Z,156148,iPKLhLSMmI,incremental,jednostavno-test,679df971131ae225e46b4282,participant,hcpib7hgm6m66k0j,,,,Pronašao sam taj uređaj koji mislim da je Marina izgubila.,Mislim da je Marina izgubila laptop.,fac,,,42,ob,ob + ob,non-interrogative component
,Timer frame,html.Frame,2_2_1,,,,,,,10984.400000001478,145121.30000000075,145131.666,145148.2,156132.6000000015,156132.70000000112,2025-02-01T12:40:25.808Z,156164.6,iPKLhLSMmI,incremental,jednostavno-test,679df971131ae225e46b4282,participant,hcpib7hgm6m66k0j,,,,Pronašao sam taj uređaj koji mislim da je Marina izgubila.,Mislim da je Marina izgubila laptop.,fac,,,42,ob,ob + ob,non-interrogative component
,inter-stimulus,canvas.Screen,2_2_2,,,,,,response,6008.500000001484,156132.70000000112,156148,156164.6,162173.1000000015,162173.90000000037,2025-02-01T12:40:31.849Z,162181.2,iPKLhLSMmI,incremental,jednostavno-test,679df971131ae225e46b4282,participant,hcpib7hgm6m66k0j,,,mousedown,Pronašao sam taj uređaj koji mislim da je Marina izgubila.,Mislim da je Marina izgubila laptop.,fac,,,42,ob,ob + ob,non-interrogative component
,Sequence,flow.Sequence,2_2,,,,,,completion,17758.200000001496,144391.1000000015,144398.298,144414.9,162173.1000000015,162174,2025-02-01T12:40:31.850Z,162181.2,iPKLhLSMmI,incremental,jednostavno-test,679df971131ae225e46b4282,participant,hcpib7hgm6m66k0j,,,,Pronašao sam taj uređaj koji mislim da je Marina izgubila.,Mislim da je Marina izgubila laptop.,fac,,,42,ob,ob + ob,non-interrogative component
,context,canvas.Screen,2_3_0_0,,,,,,response,4986.799999999988,162174.30000000075,162164.5,162181.2,167168,167168.40000000037,2025-02-01T12:40:36.844Z,167181,iPKLhLSMmI,incremental,jednostavno-test,679df971131ae225e46b4282,participant,hcpib7hgm6m66k0j,,,click,Kakvog koga primijetila sam otkud se vraćajući na krovu čega?,Vraćajući se iz apoteke primijetila sam malog mačića na krovu auta.,nf,,,52,filler,filler,filler
,Timer frame,html.Frame,2_3_0,,,,,,,4987.200000000361,162174.1000000015,162164.5,162181.2,167168.40000000037,167168.40000000037,2025-02-01T12:40:36.844Z,167181,iPKLhLSMmI,incremental,jednostavno-test,679df971131ae225e46b4282,participant,hcpib7hgm6m66k0j,,,,Kakvog koga primijetila sam otkud se vraćajući na krovu čega?,Vraćajući se iz apoteke primijetila sam malog mačića na krovu auta.,nf,,,52,filler,filler,filler
,stimulus,canvas.Screen,2_3_1_0,,,,,,response,3690.800000000745,167168.6000000015,167164.5,167181,170871.80000000075,170872.1000000015,2025-02-01T12:40:40.548Z,170880.9,iPKLhLSMmI,incremental,jednostavno-test,679df971131ae225e46b4282,participant,hcpib7hgm6m66k0j,,1,click @1,Kakvog koga primijetila sam otkud se vraćajući na krovu čega?,Vraćajući se iz apoteke primijetila sam malog mačića na krovu auta.,nf,,,52,filler,filler,filler
,Timer frame,html.Frame,2_3_1,,,,,,,3691.2000000011176,167168.5,167164.5,167181,170872.20000000112,170872.20000000112,2025-02-01T12:40:40.548Z,170880.9,iPKLhLSMmI,incremental,jednostavno-test,679df971131ae225e46b4282,participant,hcpib7hgm6m66k0j,,,,Kakvog koga primijetila sam otkud se vraćajući na krovu čega?,Vraćajući se iz apoteke primijetila sam malog mačića na krovu auta.,nf,,,52,filler,filler,filler
,inter-stimulus,canvas.Screen,2_3_2,,,,,,response,177091.30000000112,170872.30000000075,170864.264,170880.9,347972.2000000011,347972.80000000075,2025-02-01T12:43:37.648Z,347992.7,iPKLhLSMmI,incremental,jednostavno-test,679df971131ae225e46b4282,participant,hcpib7hgm6m66k0j,,,mousedown,Kakvog koga primijetila sam otkud se vraćajući na krovu čega?,Vraćajući se iz apoteke primijetila sam malog mačića na krovu auta.,nf,,,52,filler,filler,filler
,Sequence,flow.Sequence,2_3,,,,,,completion,185791.0000000011,162174.1000000015,162164.5,162181.2,347972.2000000011,347972.9000000004,2025-02-01T12:43:37.648Z,347992.7,iPKLhLSMmI,incremental,jednostavno-test,679df971131ae225e46b4282,participant,hcpib7hgm6m66k0j,,,,Kakvog koga primijetila sam otkud se vraćajući na krovu čega?,Vraćajući se iz apoteke primijetila sam malog mačića na krovu auta.,nf,,,52,filler,filler,filler
,context,canvas.Screen,2_4_0_0,,,,,,response,712.500000001106,347973,347976.132,347992.7,348705.2000000011,348706,2025-02-01T12:43:38.382Z,348709.4,iPKLhLSMmI,incremental,jednostavno-test,679df971131ae225e46b4282,participant,hcpib7hgm6m66k0j,,,click,Što Danijela ne voli gledati?,Danijela ne voli gledati nogomet.,neg,,,19,ob,ob + ob,interrogative pronouns
,Timer frame,html.Frame,2_4_0,,,,,,,713.2999999999884,347972.9000000004,347976.132,347992.7,348706,348706,2025-02-01T12:43:38.382Z,348709.4,iPKLhLSMmI,incremental,jednostavno-test,679df971131ae225e46b4282,participant,hcpib7hgm6m66k0j,,,,Što Danijela ne voli gledati?,Danijela ne voli gledati nogomet.,neg,,,19,ob,ob + ob,interrogative pronouns
,stimulus,canvas.Screen,2_4_1_0,,,,,,response,1008.3000000010943,348706.1000000015,348692.9,348709.4,349717.7000000011,349718.2000000011,2025-02-01T12:43:39.394Z,349742.8,iPKLhLSMmI,incremental,jednostavno-test,679df971131ae225e46b4282,participant,hcpib7hgm6m66k0j,,7,click @7,Što Danijela ne voli gledati?,Danijela ne voli gledati nogomet.,neg,,,19,ob,ob + ob,interrogative pronouns
,Timer frame,html.Frame,2_4_1,,,,,,,1008.9000000007218,348706,348692.9,348709.4,349718.30000000075,349718.4000000004,2025-02-01T12:43:39.394Z,349742.8,iPKLhLSMmI,incremental,jednostavno-test,679df971131ae225e46b4282,participant,hcpib7hgm6m66k0j,,,,Što Danijela ne voli gledati?,Danijela ne voli gledati nogomet.,neg,,,19,ob,ob + ob,interrogative pronouns
,inter-stimulus,canvas.Screen,2_4_2,,,,,,response,256.5000000007567,349718.4000000004,349726.066,349742.8,349999.30000000075,349999.80000000075,2025-02-01T12:43:39.675Z,350026.1,iPKLhLSMmI,incremental,jednostavno-test,679df971131ae225e46b4282,participant,hcpib7hgm6m66k0j,,,mousedown,Što Danijela ne voli gledati?,Danijela ne voli gledati nogomet.,neg,,,19,ob,ob + ob,interrogative pronouns
,Sequence,flow.Sequence,2_4,,,,,,completion,2006.6000000007334,347972.9000000004,347976.132,347992.7,349999.30000000075,349999.80000000075,2025-02-01T12:43:39.675Z,350026.1,iPKLhLSMmI,incremental,jednostavno-test,679df971131ae225e46b4282,participant,hcpib7hgm6m66k0j,,,,Što Danijela ne voli gledati?,Danijela ne voli gledati nogomet.,neg,,,19,ob,ob + ob,interrogative pronouns
,context,canvas.Screen,2_5_0_0,,,,,,response,1193.2000000007683,350000,350009.464,350026.1,351219.30000000075,351219.6000000015,2025-02-01T12:43:40.895Z,351242.6,iPKLhLSMmI,incremental,jednostavno-test,679df971131ae225e46b4282,participant,hcpib7hgm6m66k0j,,,click,"Kada, kurir je razjasnio, što mora dostaviti?",Kurir je razjasnio što mora dostaviti sutra.,iq,0,0,7,ad,ob + ad,interrogative pronouns
,Timer frame,html.Frame,2_5_0,,,,,,,1193.6000000011409,349999.9000000004,350009.464,350026.1,351219.7000000011,351219.7000000011,2025-02-01T12:43:40.895Z,351242.6,iPKLhLSMmI,incremental,jednostavno-test,679df971131ae225e46b4282,participant,hcpib7hgm6m66k0j,,,,"Kada, kurir je razjasnio, što mora dostaviti?",Kurir je razjasnio što mora dostaviti sutra.,iq,0,0,7,ad,ob + ad,interrogative pronouns