meta,sender,sender_type,sender_id,age,education,croatian-knowledge,occupation,,ended_on,duration,time_run,time_render,time_show,time_end,time_commit,timestamp,time_switch,openLabId,type,task,project,status,code,confirmationCode,response,response_action,answer_true,stimulus,context,island_type,transfer_s,transfer_c,id,right_answer,question,change_date
"{""labjs_version"":""20.2.4"",""labjs_build"":{""flavor"":""production"",""commit"":""f5b4a49f956347addd546a832a3327688c2c0fef""},""location"":""https://open-lab.online/test/anketa/66a91b2de3bab725623a4153"",""userAgent"":""Mozilla/5.0 (Windows NT 10.0; Win64; x64) AppleWebKit/537.36 (KHTML, like Gecko) Chrome/126.0.0.0 Safari/537.36"",""platform"":""Win32"",""language"":""en-HR"",""locale"":""en-GB"",""timeZone"":""Europe/Zagreb"",""timezoneOffset"":-120,""screen_width"":2048,""screen_height"":1152,""scroll_width"":1986,""scroll_height"":983,""window_innerWidth"":1986,""window_innerHeight"":1031,""devicePixelRatio"":1.25}",Demography form,html.Form,0,53,master,mother-tongue,poduzetnik,,form submission,13784.9,992.6000000238419,996,1012.6,14797.5,14797.800000071526,2024-07-30T16:56:28.671Z,14807.2,0BJtjcDyfZ,incremental,anketa,6645cf40bc81b65c5faccf1d,participant,hcpib7dulz8ntnec,148598,,,,,,,,,,,,
,context,canvas.Screen,1_0,,,,,,response,4203.700000095367,14797.900000095367,14790.5,14807.2,19010.900000095367,19011.600000023842,2024-07-30T16:56:32.885Z,19027.3,0BJtjcDyfZ,incremental,anketa,6645cf40bc81b65c5faccf1d,participant,hcpib7dulz8ntnec,,,click,,,,,,,,,,
,stimulus,canvas.Screen,1_1,,,,,,response,2743.5000000715263,19011.700000047684,19010.6,19027.3,21770.800000071526,21772.200000047684,2024-07-30T16:56:35.646Z,21779.6,0BJtjcDyfZ,incremental,anketa,6645cf40bc81b65c5faccf1d,participant,hcpib7dulz8ntnec,,7,click @7,,,,,,,,,,
,inter-stimulus,canvas.Screen,1_2,,,,,,response,1736.0000000238433,21772.300000071526,21762.9,21779.6,23515.600000023842,23516.700000047684,2024-07-30T16:56:37.390Z,23531,0BJtjcDyfZ,incremental,anketa,6645cf40bc81b65c5faccf1d,participant,hcpib7dulz8ntnec,,,mousedown,,,,,,,,,,
,context,canvas.Screen,1_3,,,,,,response,3848.2000000476837,23516.700000047684,23514.4,23531,27379.200000047684,27379.700000047684,2024-07-30T16:56:41.253Z,27400.9,0BJtjcDyfZ,incremental,anketa,6645cf40bc81b65c5faccf1d,participant,hcpib7dulz8ntnec,,,click,,,,,,,,,,
"{""labjs_version"":""20.2.4"",""labjs_build"":{""flavor"":""production"",""commit"":""f5b4a49f956347addd546a832a3327688c2c0fef""},""location"":""https://open-lab.online/test/anketa/66a91b2de3bab725623a4153"",""userAgent"":""Mozilla/5.0 (Windows NT 10.0; Win64; x64) AppleWebKit/537.36 (KHTML, like Gecko) Chrome/126.0.0.0 Safari/537.36"",""platform"":""Win32"",""language"":""en-HR"",""locale"":""en-GB"",""timeZone"":""Europe/Zagreb"",""timezoneOffset"":-120,""screen_width"":1920,""screen_height"":1080,""scroll_width"":1858,""scroll_height"":911,""window_innerWidth"":1858,""window_innerHeight"":959,""devicePixelRatio"":1}",Demography form,html.Form,0,53,master,mother-tongue,poduzetnik,,form submission,14132.7,648.7999999523163,653.666,670.3,14803,14803.5,2024-07-30T16:58:21.895Z,14815.3,0BJtjcDyfZ,incremental,anketa,6645cf40bc81b65c5faccf1d,participant,hcpib7dulz8ntnec,148598,,,,,,,,,,,,
,context,canvas.Screen,1_0,,,,,,response,3057.2999999046333,14803.799999952316,14798.6,14815.3,17872.599999904633,17873.399999976158,2024-07-30T16:58:24.965Z,17884.5,0BJtjcDyfZ,incremental,anketa,6645cf40bc81b65c5faccf1d,participant,hcpib7dulz8ntnec,,,click,,,,,,,,,,
"{""labjs_version"":""20.2.4"",""labjs_build"":{""flavor"":""production"",""commit"":""f5b4a49f956347addd546a832a3327688c2c0fef""},""location"":""https://open-lab.online/test/anketa/66a91b2de3bab725623a4153"",""userAgent"":""Mozilla/5.0 (Windows NT 10.0; Win64; x64) AppleWebKit/537.36 (KHTML, like Gecko) Chrome/126.0.0.0 Safari/537.36"",""platform"":""Win32"",""language"":""en-HR"",""locale"":""en-GB"",""timeZone"":""Europe/Zagreb"",""timezoneOffset"":-120,""screen_width"":1920,""screen_height"":1080,""scroll_width"":1858,""scroll_height"":911,""window_innerWidth"":1858,""window_innerHeight"":959,""devicePixelRatio"":1}",Demography form,html.Form,0,53,master,mother-tongue,poduzetnik,,form submission,11865.000000047683,848.5,856.166,872.7,12737.700000047684,12738,2024-07-30T17:04:55.319Z,12749.2,0BJtjcDyfZ,incremental,anketa,6645cf40bc81b65c5faccf1d,participant,hcpib7dulz8ntnec,148598,,,,,,,,,,,,
,context,canvas.Screen,1_0,,,,,,response,3163.100000071525,12738.200000047684,12732.53,12749.2,15912.300000071526,15912.900000095367,2024-07-30T17:04:58.494Z,15918.6,0BJtjcDyfZ,incremental,anketa,6645cf40bc81b65c5faccf1d,participant,hcpib7dulz8ntnec,,,click,,,,,,,,,,
,stimulus,canvas.Screen,1_1,,,,,,response,2569.6000000476834,15913,15901.8,15918.6,18488.200000047684,18488.900000095367,2024-07-30T17:05:01.070Z,18504,0BJtjcDyfZ,incremental,anketa,6645cf40bc81b65c5faccf1d,participant,hcpib7dulz8ntnec,,7,click @7,,,,,,,,,,
,inter-stimulus,canvas.Screen,1_2,,,,,,response,1688.8000000715256,18488.900000095367,18487.3,18504,20192.800000071526,20193.800000071526,2024-07-30T17:05:02.775Z,20205.3,0BJtjcDyfZ,incremental,anketa,6645cf40bc81b65c5faccf1d,participant,hcpib7dulz8ntnec,,,mousedown,,,,,,,,,,
,context,canvas.Screen,1_3,,,,,,response,1715.0000000715263,20193.900000095367,20188.7,20205.3,21920.300000071526,21920.800000071526,2024-07-30T17:05:04.502Z,21923.5,0BJtjcDyfZ,incremental,anketa,6645cf40bc81b65c5faccf1d,participant,hcpib7dulz8ntnec,,,click,,,,,,,,,,
,stimulus,canvas.Screen,1_4,,,,,,response,4836.700000047684,21920.900000095367,21906.8,21923.5,26760.200000047684,26761.100000023842,2024-07-30T17:05:09.342Z,26777.4,0BJtjcDyfZ,incremental,anketa,6645cf40bc81b65c5faccf1d,participant,hcpib7dulz8ntnec,,2,click @2,,,,,,,,,,
,inter-stimulus,canvas.Screen,1_5,,,,,,response,1314.3000000476823,26761.100000023842,26760.73,26777.4,28091.700000047684,28092.5,2024-07-30T17:05:10.674Z,28095.2,0BJtjcDyfZ,incremental,anketa,6645cf40bc81b65c5faccf1d,participant,hcpib7dulz8ntnec,,,mousedown,,,,,,,,,,
,context,canvas.Screen,1_6,,,,,,response,3673.100000071525,28092.600000023842,28078.5,28095.2,31768.300000071526,31768.800000071526,2024-07-30T17:05:14.350Z,31781.5,0BJtjcDyfZ,incremental,anketa,6645cf40bc81b65c5faccf1d,participant,hcpib7dulz8ntnec,,,click,,,,,,,,,,
,stimulus,canvas.Screen,1_7_0,,,,,,response,2482.8000000715256,31769.100000023842,31764.8,31781.5,34264.300000071526,34265,2024-07-30T17:05:16.846Z,34266.9,0BJtjcDyfZ,incremental,anketa,6645cf40bc81b65c5faccf1d,participant,hcpib7dulz8ntnec,,7,click @7,,,,,,,,,,
,Timer frame,html.Frame,1_7,,,,,,,2483.600000023842,31768.900000095367,31764.8,31781.5,34265.10000002384,34265.200000047684,2024-07-30T17:05:16.846Z,34266.9,0BJtjcDyfZ,incremental,anketa,6645cf40bc81b65c5faccf1d,participant,hcpib7dulz8ntnec,,,,,,,,,,,,,
,Screen,canvas.Screen,1_8,,,,,,response,2333.900000071524,34265.300000071526,34250.2,34266.9,36600.800000071526,36601.700000047684,2024-07-30T17:05:19.183Z,36602.2,0BJtjcDyfZ,incremental,anketa,6645cf40bc81b65c5faccf1d,participant,hcpib7dulz8ntnec,,,mousedown,,,,,,,,,,
,Question form,html.Form,1_9,,,,,,form submission,4775.20000009537,36601.700000047684,36601.184,36602.2,41377.40000009537,41377.60000002384,2024-07-30T17:05:23.959Z,41389.4,0BJtjcDyfZ,incremental,anketa,6645cf40bc81b65c5faccf1d,participant,hcpib7dulz8ntnec,,,,zrele,,,,,,,,,
,Screen,canvas.Screen,1_10,,,,,,response,1283.500000095366,41378.5,41372.7,41389.4,42672.90000009537,42674,2024-07-30T17:05:25.255Z,42690.5,0BJtjcDyfZ,incremental,anketa,6645cf40bc81b65c5faccf1d,participant,hcpib7dulz8ntnec,,,mousedown,,,,,,,,,,
,inter-stimulus,canvas.Screen,1_11,,,,,,response,2398.5,42674.10000002384,42673.8,42690.5,45089,45090.5,2024-07-30T17:05:27.672Z,45092.5,0BJtjcDyfZ,incremental,anketa,6645cf40bc81b65c5faccf1d,participant,hcpib7dulz8ntnec,,,mousedown,,,,,,,,,,
,First stimuli,flow.Sequence,1,,,,,,completion,32339.8,12738.100000023842,12732.53,12749.2,45089,45090.60000002384,2024-07-30T17:05:27.672Z,45092.5,0BJtjcDyfZ,incremental,anketa,6645cf40bc81b65c5faccf1d,participant,hcpib7dulz8ntnec,,,,,,,,,,,,,
,context,canvas.Screen,2_0_0_0,,,,,,response,2475.7000000476837,45090.800000071526,45075.7,45092.5,47568.200000047684,47568.800000071526,2024-07-30T17:05:30.150Z,47577.8,0BJtjcDyfZ,incremental,anketa,6645cf40bc81b65c5faccf1d,participant,hcpib7dulz8ntnec,,,click,,Što je Inna tri sata pročitala?,Inna je tri sata čitala zanimljiv članak.,nf,,,39,,,
,Timer frame,html.Frame,2_0_0,,,,,,,2476.4000000953674,45090.800000071526,45075.7,45092.5,47568.90000009537,47569,2024-07-30T17:05:30.150Z,47577.8,0BJtjcDyfZ,incremental,anketa,6645cf40bc81b65c5faccf1d,participant,hcpib7dulz8ntnec,,,,,Što je Inna tri sata pročitala?,Inna je tri sata čitala zanimljiv članak.,nf,,,39,,,
,stimulus,canvas.Screen,2_0_1_0,,,,,,response,3782.5000000715227,47569.10000002384,47561.2,47577.8,51360.300000071526,51360.90000009537,2024-07-30T17:05:33.942Z,51364.3,0BJtjcDyfZ,incremental,anketa,6645cf40bc81b65c5faccf1d,participant,hcpib7dulz8ntnec,,5,click @5,,Što je Inna tri sata pročitala?,Inna je tri sata čitala zanimljiv članak.,nf,,,39,,,
,Timer frame,html.Frame,2_0_1,,,,,,,3783.199999999997,47569.10000002384,47561.2,47577.8,51361,51361.10000002384,2024-07-30T17:05:33.942Z,51364.3,0BJtjcDyfZ,incremental,anketa,6645cf40bc81b65c5faccf1d,participant,hcpib7dulz8ntnec,,,,,Što je Inna tri sata pročitala?,Inna je tri sata čitala zanimljiv članak.,nf,,,39,,,
,Spremanje,canvas.Screen,2_0_2,,,,,,skipped,,51361.10000002384,,,51361,51361.200000047684,2024-07-30T17:05:33.942Z,51364.3,0BJtjcDyfZ,incremental,anketa,6645cf40bc81b65c5faccf1d,participant,hcpib7dulz8ntnec,,,,,Što je Inna tri sata pročitala?,Inna je tri sata čitala zanimljiv članak.,nf,,,39,,,
,Question form,html.Form,2_0_3,,,,,,skipped,,51361.300000071526,,,51361,51361.300000071526,2024-07-30T17:05:33.942Z,51364.3,0BJtjcDyfZ,incremental,anketa,6645cf40bc81b65c5faccf1d,participant,hcpib7dulz8ntnec,,,,,Što je Inna tri sata pročitala?,Inna je tri sata čitala zanimljiv članak.,nf,,,39,,,
,Answer indication,canvas.Screen,2_0_4,,,,,,skipped,,51361.90000009537,,,51361,51361.90000009537,2024-07-30T17:05:33.943Z,51364.3,0BJtjcDyfZ,incremental,anketa,6645cf40bc81b65c5faccf1d,participant,hcpib7dulz8ntnec,,,,,Što je Inna tri sata pročitala?,Inna je tri sata čitala zanimljiv članak.,nf,,,39,,,
,inter-stimulus,canvas.Screen,2_0_5,,,,,,response,1948.5000000715227,51362,51347.6,51364.3,53312.800000071526,53313.800000071526,2024-07-30T17:05:35.895Z,53315.8,0BJtjcDyfZ,incremental,anketa,6645cf40bc81b65c5faccf1d,participant,hcpib7dulz8ntnec,,,mousedown,,Što je Inna tri sata pročitala?,Inna je tri sata čitala zanimljiv članak.,nf,,,39,,,
,Sequence,flow.Sequence,2_0,,,,,,completion,8220.300000071526,45090.800000071526,45075.7,45092.5,53312.800000071526,53314,2024-07-30T17:05:35.895Z,53315.8,0BJtjcDyfZ,incremental,anketa,6645cf40bc81b65c5faccf1d,participant,hcpib7dulz8ntnec,,,,,Što je Inna tri sata pročitala?,Inna je tri sata čitala zanimljiv članak.,nf,,,39,,,
,context,canvas.Screen,2_1_0_0,,,,,,response,7364.6000000953645,53314.200000047684,53299.2,53315.8,60680.40000009537,60681,2024-07-30T17:05:43.262Z,60688.6,0BJtjcDyfZ,incremental,anketa,6645cf40bc81b65c5faccf1d,participant,hcpib7dulz8ntnec,,,click,,Lijepe su samo crne čizme bile u ovom ormaru.,Samo su crne čizme bile lijepe stvari u ovom ormaru.,di,,,34,CRNA; CRNE; CRNI; CRNO; CRN,Boja cipela je?,
,Timer frame,html.Frame,2_1_0,,,,,,,7365.400000047681,53314,53299.2,53315.8,60681.200000047684,60681.200000047684,2024-07-30T17:05:43.262Z,60688.6,0BJtjcDyfZ,incremental,anketa,6645cf40bc81b65c5faccf1d,participant,hcpib7dulz8ntnec,,,,,Lijepe su samo crne čizme bile u ovom ormaru.,Samo su crne čizme bile lijepe stvari u ovom ormaru.,di,,,34,CRNA; CRNE; CRNI; CRNO; CRN,Boja cipela je?,
,stimulus,canvas.Screen,2_1_1_0,,,,,,response,3775.700000071527,60681.700000047684,60671.964,60688.6,64464.300000071526,64464.800000071526,2024-07-30T17:05:47.045Z,64475,0BJtjcDyfZ,incremental,anketa,6645cf40bc81b65c5faccf1d,participant,hcpib7dulz8ntnec,,6,click @6,,Lijepe su samo crne čizme bile u ovom ormaru.,Samo su crne čizme bile lijepe stvari u ovom ormaru.,di,,,34,CRNA; CRNE; CRNI; CRNO; CRN,Boja cipela je?,
,Timer frame,html.Frame,2_1_1,,,,,,,3776.300000095369,60681.300000071526,60671.964,60688.6,64464.90000009537,64464.90000009537,2024-07-30T17:05:47.046Z,64475,0BJtjcDyfZ,incremental,anketa,6645cf40bc81b65c5faccf1d,participant,hcpib7dulz8ntnec,,,,,Lijepe su samo crne čizme bile u ovom ormaru.,Samo su crne čizme bile lijepe stvari u ovom ormaru.,di,,,34,CRNA; CRNE; CRNI; CRNO; CRN,Boja cipela je?,
,Spremanje,canvas.Screen,2_1_2,,,,,,response,1246.3000000715256,64465,64458.4,64475,65721.30000007153,65722.20000004768,2024-07-30T17:05:48.303Z,65726.1,0BJtjcDyfZ,incremental,anketa,6645cf40bc81b65c5faccf1d,participant,hcpib7dulz8ntnec,,,mousedown,,Lijepe su samo crne čizme bile u ovom ormaru.,Samo su crne čizme bile lijepe stvari u ovom ormaru.,di,,,34,CRNA; CRNE; CRNI; CRNO; CRN,Boja cipela je?,
,Question form,html.Form,2_1_3,,,,,,form submission,8691.20000007152,65722.30000007153,65709.3,65726.1,74417.30000007153,74417.40000009537,2024-07-30T17:05:56.998Z,74433.2,0BJtjcDyfZ,incremental,anketa,6645cf40bc81b65c5faccf1d,participant,hcpib7dulz8ntnec,,,,crna,Lijepe su samo crne čizme bile u ovom ormaru.,Samo su crne čizme bile lijepe stvari u ovom ormaru.,di,,,34,CRNA; CRNE; CRNI; CRNO; CRN,Boja cipela je?,
,Answer indication,canvas.Screen,2_1_4,,,,,,response,1191.7000000953703,74418.10000002384,74416.6,74433.2,75624.90000009537,75626,2024-07-30T17:05:58.207Z,75634.2,0BJtjcDyfZ,incremental,anketa,6645cf40bc81b65c5faccf1d,participant,hcpib7dulz8ntnec,,,mousedown,,Lijepe su samo crne čizme bile u ovom ormaru.,Samo su crne čizme bile lijepe stvari u ovom ormaru.,di,,,34,CRNA; CRNE; CRNI; CRNO; CRN,Boja cipela je?,
,inter-stimulus,canvas.Screen,2_1_5,,,,,,response,1014.6000000715285,75626.10000002384,75617.6,75634.2,76648.80000007153,76649.70000004768,2024-07-30T17:05:59.230Z,76668.4,0BJtjcDyfZ,incremental,anketa,6645cf40bc81b65c5faccf1d,participant,hcpib7dulz8ntnec,,,mousedown,,Lijepe su samo crne čizme bile u ovom ormaru.,Samo su crne čizme bile lijepe stvari u ovom ormaru.,di,,,34,CRNA; CRNE; CRNI; CRNO; CRN,Boja cipela je?,
,Sequence,flow.Sequence,2_1,,,,,,completion,23333.000000071523,53314,53299.2,53315.8,76648.80000007153,76649.80000007153,2024-07-30T17:05:59.230Z,76668.4,0BJtjcDyfZ,incremental,anketa,6645cf40bc81b65c5faccf1d,participant,hcpib7dulz8ntnec,,,,,Lijepe su samo crne čizme bile u ovom ormaru.,Samo su crne čizme bile lijepe stvari u ovom ormaru.,di,,,34,CRNA; CRNE; CRNI; CRNO; CRN,Boja cipela je?,
,context,canvas.Screen,2_2_0_0,,,,,,response,2268.0000000953733,76650,76651.7,76668.4,78936.40000009537,78936.80000007153,2024-07-30T17:06:01.517Z,78953.6,0BJtjcDyfZ,incremental,anketa,6645cf40bc81b65c5faccf1d,participant,hcpib7dulz8ntnec,,,click,,Čega je riješio taj misterij?,Riješio je taj misterij nestanka psa.,di,,,32,,,
,Timer frame,html.Frame,2_2_0,,,,,,,2268.5000000953733,76649.90000009537,76651.7,76668.4,78936.90000009537,78936.90000009537,2024-07-30T17:06:01.518Z,78953.6,0BJtjcDyfZ,incremental,anketa,6645cf40bc81b65c5faccf1d,participant,hcpib7dulz8ntnec,,,,,Čega je riješio taj misterij?,Riješio je taj misterij nestanka psa.,di,,,32,,,
,stimulus,canvas.Screen,2_2_1_0,,,,,,response,3318.8000000953616,78937.20000004768,78937,78953.6,82272.40000009537,82273.30000007153,2024-07-30T17:06:04.854Z,82306.4,0BJtjcDyfZ,incremental,anketa,6645cf40bc81b65c5faccf1d,participant,hcpib7dulz8ntnec,,4,click @4,,Čega je riješio taj misterij?,Riješio je taj misterij nestanka psa.,di,,,32,,,
,Timer frame,html.Frame,2_2_1,,,,,,,3319.8000000953616,78937.10000002384,78937,78953.6,82273.40000009537,82273.5,2024-07-30T17:06:04.854Z,82306.4,0BJtjcDyfZ,incremental,anketa,6645cf40bc81b65c5faccf1d,participant,hcpib7dulz8ntnec,,,,,Čega je riješio taj misterij?,Riješio je taj misterij nestanka psa.,di,,,32,,,
,Spremanje,canvas.Screen,2_2_2,,,,,,skipped,,82273.5,,,82273.40000009537,82273.70000004768,2024-07-30T17:06:04.854Z,82306.4,0BJtjcDyfZ,incremental,anketa,6645cf40bc81b65c5faccf1d,participant,hcpib7dulz8ntnec,,,,,Čega je riješio taj misterij?,Riješio je taj misterij nestanka psa.,di,,,32,,,
,Question form,html.Form,2_2_3,,,,,,skipped,,82273.70000004768,,,82273.40000009537,82273.70000004768,2024-07-30T17:06:04.854Z,82306.4,0BJtjcDyfZ,incremental,anketa,6645cf40bc81b65c5faccf1d,participant,hcpib7dulz8ntnec,,,,,Čega je riješio taj misterij?,Riješio je taj misterij nestanka psa.,di,,,32,,,
,Answer indication,canvas.Screen,2_2_4,,,,,,skipped,,82274.40000009537,,,82273.40000009537,82274.40000009537,2024-07-30T17:06:04.855Z,82306.4,0BJtjcDyfZ,incremental,anketa,6645cf40bc81b65c5faccf1d,participant,hcpib7dulz8ntnec,,,,,Čega je riješio taj misterij?,Riješio je taj misterij nestanka psa.,di,,,32,,,
,inter-stimulus,canvas.Screen,2_2_5,,,,,,response,1166.5000000953733,82274.60000002384,82289.698,82306.4,83472.90000009537,83473.70000004768,2024-07-30T17:06:06.054Z,83490.7,0BJtjcDyfZ,incremental,anketa,6645cf40bc81b65c5faccf1d,participant,hcpib7dulz8ntnec,,,mousedown,,Čega je riješio taj misterij?,Riješio je taj misterij nestanka psa.,di,,,32,,,
,Sequence,flow.Sequence,2_2,,,,,,completion,6804.500000095373,76649.90000009537,76651.7,76668.4,83472.90000009537,83473.90000009537,2024-07-30T17:06:06.054Z,83490.7,0BJtjcDyfZ,incremental,anketa,6645cf40bc81b65c5faccf1d,participant,hcpib7dulz8ntnec,,,,,Čega je riješio taj misterij?,Riješio je taj misterij nestanka psa.,di,,,32,,,
,context,canvas.Screen,2_3_0_0,,,,,,response,3557.7000000953703,83474.20000004768,83474,83490.7,87048.40000009537,87048.80000007153,2024-07-30T17:06:09.629Z,87060.3,0BJtjcDyfZ,incremental,anketa,6645cf40bc81b65c5faccf1d,participant,hcpib7dulz8ntnec,,,click,,Što si saznao tužnu vijest da je Petar izgubio u podzemnoj??,Saznao si tužnu vijest da je Petar izgubio putovnicu u podzemnoj..,cnp,38,34,9,,,
,Timer frame,html.Frame,2_3_0,,,,,,,3558.2000000953703,83474,83474,83490.7,87048.90000009537,87049,2024-07-30T17:06:09.630Z,87060.3,0BJtjcDyfZ,incremental,anketa,6645cf40bc81b65c5faccf1d,participant,hcpib7dulz8ntnec,,,,,Što si saznao tužnu vijest da je Petar izgubio u podzemnoj??,Saznao si tužnu vijest da je Petar izgubio putovnicu u podzemnoj..,cnp,38,34,9,,,
,stimulus,canvas.Screen,2_3_1_0,,,,,,response,4436.1000000953645,87049.10000002384,87043.6,87060.3,91496.40000009537,91497,2024-07-30T17:06:14.078Z,91514,0BJtjcDyfZ,incremental,anketa,6645cf40bc81b65c5faccf1d,participant,hcpib7dulz8ntnec,,3,click @3,,Što si saznao tužnu vijest da je Petar izgubio u podzemnoj??,Saznao si tužnu vijest da je Petar izgubio putovnicu u podzemnoj..,cnp,38,34,9,,,
,Timer frame,html.Frame,2_3_1,,,,,,,4436.800000023839,87049,87043.6,87060.3,91497.10000002384,91497.10000002384,2024-07-30T17:06:14.078Z,91514,0BJtjcDyfZ,incremental,anketa,6645cf40bc81b65c5faccf1d,participant,hcpib7dulz8ntnec,,,,,Što si saznao tužnu vijest da je Petar izgubio u podzemnoj??,Saznao si tužnu vijest da je Petar izgubio putovnicu u podzemnoj..,cnp,38,34,9,,,
,Spremanje,canvas.Screen,2_3_2,,,,,,skipped,,91497.10000002384,,,91497.10000002384,91497.10000002384,2024-07-30T17:06:14.078Z,91514,0BJtjcDyfZ,incremental,anketa,6645cf40bc81b65c5faccf1d,participant,hcpib7dulz8ntnec,,,,,Što si saznao tužnu vijest da je Petar izgubio u podzemnoj??,Saznao si tužnu vijest da je Petar izgubio putovnicu u podzemnoj..,cnp,38,34,9,,,
,Question form,html.Form,2_3_3,,,,,,skipped,,91497.20000004768,,,91497.10000002384,91497.40000009537,2024-07-30T17:06:14.078Z,91514,0BJtjcDyfZ,incremental,anketa,6645cf40bc81b65c5faccf1d,participant,hcpib7dulz8ntnec,,,,,Što si saznao tužnu vijest da je Petar izgubio u podzemnoj??,Saznao si tužnu vijest da je Petar izgubio putovnicu u podzemnoj..,cnp,38,34,9,,,
,Answer indication,canvas.Screen,2_3_4,,,,,,skipped,,91498.10000002384,,,91497.10000002384,91498.10000002384,2024-07-30T17:06:14.079Z,91514,0BJtjcDyfZ,incremental,anketa,6645cf40bc81b65c5faccf1d,participant,hcpib7dulz8ntnec,,,,,Što si saznao tužnu vijest da je Petar izgubio u podzemnoj??,Saznao si tužnu vijest da je Petar izgubio putovnicu u podzemnoj..,cnp,38,34,9,,,
,inter-stimulus,canvas.Screen,2_3_5,,,,,,response,1182.9000000953674,91498.20000004768,91497.2,91514,92696.90000009537,92698,2024-07-30T17:06:15.279Z,92714.9,0BJtjcDyfZ,incremental,anketa,6645cf40bc81b65c5faccf1d,participant,hcpib7dulz8ntnec,,,mousedown,,Što si saznao tužnu vijest da je Petar izgubio u podzemnoj??,Saznao si tužnu vijest da je Petar izgubio putovnicu u podzemnoj..,cnp,38,34,9,,,
,Sequence,flow.Sequence,2_3,,,,,,completion,9206.20000009537,83474,83474,83490.7,92696.90000009537,92698.10000002384,2024-07-30T17:06:15.279Z,92714.9,0BJtjcDyfZ,incremental,anketa,6645cf40bc81b65c5faccf1d,participant,hcpib7dulz8ntnec,,,,,Što si saznao tužnu vijest da je Petar izgubio u podzemnoj??,Saznao si tužnu vijest da je Petar izgubio putovnicu u podzemnoj..,cnp,38,34,9,,,
,context,canvas.Screen,2_4_0_0,,,,,,response,1845.5000000953733,92698.5,92698.266,92714.9,94560.40000009537,94560.90000009537,2024-07-30T17:06:17.142Z,94566.5,0BJtjcDyfZ,incremental,anketa,6645cf40bc81b65c5faccf1d,participant,hcpib7dulz8ntnec,,,click,,Što ćemo uništit i saditi vrtove?,Uništit ćemo carstva i saditi vrtove.,csi,0,0,5,,,
,Timer frame,html.Frame,2_4_0,,,,,,,1846.1000000000058,92698.30000007153,92698.266,92714.9,94561,94561.10000002384,2024-07-30T17:06:17.142Z,94566.5,0BJtjcDyfZ,incremental,anketa,6645cf40bc81b65c5faccf1d,participant,hcpib7dulz8ntnec,,,,,Što ćemo uništit i saditi vrtove?,Uništit ćemo carstva i saditi vrtove.,csi,0,0,5,,,
,stimulus,canvas.Screen,2_4_1_0,,,,,,response,2113.9000000953674,94561.20000004768,94549.7,94566.5,96680.40000009537,96680.90000009537,2024-07-30T17:06:19.261Z,96684.8,0BJtjcDyfZ,incremental,anketa,6645cf40bc81b65c5faccf1d,participant,hcpib7dulz8ntnec,,6,click @6,,Što ćemo uništit i saditi vrtove?,Uništit ćemo carstva i saditi vrtove.,csi,0,0,5,,,
,Timer frame,html.Frame,2_4_1,,,,,,,2114.4000000953674,94561.10000002384,94549.7,94566.5,96680.90000009537,96681,2024-07-30T17:06:19.262Z,96684.8,0BJtjcDyfZ,incremental,anketa,6645cf40bc81b65c5faccf1d,participant,hcpib7dulz8ntnec,,,,,Što ćemo uništit i saditi vrtove?,Uništit ćemo carstva i saditi vrtove.,csi,0,0,5,,,
,Spremanje,canvas.Screen,2_4_2,,,,,,skipped,,96681,,,96680.90000009537,96681.10000002384,2024-07-30T17:06:19.262Z,96684.8,0BJtjcDyfZ,incremental,anketa,6645cf40bc81b65c5faccf1d,participant,hcpib7dulz8ntnec,,,,,Što ćemo uništit i saditi vrtove?,Uništit ćemo carstva i saditi vrtove.,csi,0,0,5,,,
,Question form,html.Form,2_4_3,,,,,,skipped,,96681.20000004768,,,96680.90000009537,96681.20000004768,2024-07-30T17:06:19.262Z,96684.8,0BJtjcDyfZ,incremental,anketa,6645cf40bc81b65c5faccf1d,participant,hcpib7dulz8ntnec,,,,,Što ćemo uništit i saditi vrtove?,Uništit ćemo carstva i saditi vrtove.,csi,0,0,5,,,
,Answer indication,canvas.Screen,2_4_4,,,,,,skipped,,96681.5,,,96680.90000009537,96681.60000002384,2024-07-30T17:06:19.262Z,96684.8,0BJtjcDyfZ,incremental,anketa,6645cf40bc81b65c5faccf1d,participant,hcpib7dulz8ntnec,,,,,Što ćemo uništit i saditi vrtove?,Uništit ćemo carstva i saditi vrtove.,csi,0,0,5,,,
,inter-stimulus,canvas.Screen,2_4_5,,,,,,response,1084.4000000476808,96681.60000002384,96668.2,96684.8,97769.20000004768,97770.20000004768,2024-07-30T17:06:20.351Z,97785.8,0BJtjcDyfZ,incremental,anketa,6645cf40bc81b65c5faccf1d,participant,hcpib7dulz8ntnec,,,mousedown,,Što ćemo uništit i saditi vrtove?,Uništit ćemo carstva i saditi vrtove.,csi,0,0,5,,,
,Sequence,flow.Sequence,2_4,,,,,,completion,5054.3000000476895,92698.10000002384,92698.266,92714.9,97769.20000004768,97770.30000007153,2024-07-30T17:06:20.351Z,97785.8,0BJtjcDyfZ,incremental,anketa,6645cf40bc81b65c5faccf1d,participant,hcpib7dulz8ntnec,,,,,Što ćemo uništit i saditi vrtove?,Uništit ćemo carstva i saditi vrtove.,csi,0,0,5,,,
,context,canvas.Screen,2_5_0_0,,,,,,response,7278.6000000953645,97770.5,97769.1,97785.8,105064.40000009537,105064.80000007153,2024-07-30T17:06:27.645Z,105075.1,0BJtjcDyfZ,incremental,anketa,6645cf40bc81b65c5faccf1d,participant,hcpib7dulz8ntnec,,,click,,Čije sam cvijeće izašao iz kuće i zaboravio zaliti?,Izašao sam iz kuće i zaboravio zaliti majkino cvijeće.,csi,0,0,4,ZALITI MAJKINO CVIJEĆE; ZALITI MAMINO CVIJECE; ZALITI CVIJECE MAJKE; ZALITI MAJČINO CVIJEĆE; ZALITI CVIJEĆE MAJKE; ZALITI MAJKINO CVIJECE; MAJKINO CVIJEĆE ZALITI; MAJKINO CVIJECE ZALITI; ZALITI CVIJECE; ZALITI CVIJEĆE; ZALITI CVJEĆE; ZALITI CVJECE,Što sam zaboravio napraviti?,
,Timer frame,html.Frame,2_5_0,,,,,,,7279.1000000953645,97770.40000009537,97769.1,97785.8,105064.90000009537,105064.90000009537,2024-07-30T17:06:27.646Z,105075.1,0BJtjcDyfZ,incremental,anketa,6645cf40bc81b65c5faccf1d,participant,hcpib7dulz8ntnec,,,,,Čije sam cvijeće izašao iz kuće i zaboravio zaliti?,Izašao sam iz kuće i zaboravio zaliti majkino cvijeće.,csi,0,0,4,ZALITI MAJKINO CVIJEĆE; ZALITI MAMINO CVIJECE; ZALITI CVIJECE MAJKE; ZALITI MAJČINO CVIJEĆE; ZALITI CVIJEĆE MAJKE; ZALITI MAJKINO CVIJECE; MAJKINO CVIJEĆE ZALITI; MAJKINO CVIJECE ZALITI; ZALITI CVIJECE; ZALITI CVIJEĆE; ZALITI CVJEĆE; ZALITI CVJECE,Što sam zaboravio napraviti?,
,stimulus,canvas.Screen,2_5_1_0,,,,,,response,7077.300000095362,105065.10000002384,105058.4,105075.1,112152.40000009537,112152.80000007153,2024-07-30T17:06:34.733Z,112164.3,0BJtjcDyfZ,incremental,anketa,6645cf40bc81b65c5faccf1d,participant,hcpib7dulz8ntnec,,3,click @3,,Čije sam cvijeće izašao iz kuće i zaboravio zaliti?,Izašao sam iz kuće i zaboravio zaliti majkino cvijeće.,csi,0,0,4,ZALITI MAJKINO CVIJEĆE; ZALITI MAMINO CVIJECE; ZALITI CVIJECE MAJKE; ZALITI MAJČINO CVIJEĆE; ZALITI CVIJEĆE MAJKE; ZALITI MAJKINO CVIJECE; MAJKINO CVIJEĆE ZALITI; MAJKINO CVIJECE ZALITI; ZALITI CVIJECE; ZALITI CVIJEĆE; ZALITI CVJEĆE; ZALITI CVJECE,Što sam zaboravio napraviti?,
,Timer frame,html.Frame,2_5_1,,,,,,,7077.800000095362,105065.10000002384,105058.4,105075.1,112152.90000009537,112153,2024-07-30T17:06:34.734Z,112164.3,0BJtjcDyfZ,incremental,anketa,6645cf40bc81b65c5faccf1d,participant,hcpib7dulz8ntnec,,,,,Čije sam cvijeće izašao iz kuće i zaboravio zaliti?,Izašao sam iz kuće i zaboravio zaliti majkino cvijeće.,csi,0,0,4,ZALITI MAJKINO CVIJEĆE; ZALITI MAMINO CVIJECE; ZALITI CVIJECE MAJKE; ZALITI MAJČINO CVIJEĆE; ZALITI CVIJEĆE MAJKE; ZALITI MAJKINO CVIJECE; MAJKINO CVIJEĆE ZALITI; MAJKINO CVIJECE ZALITI; ZALITI CVIJECE; ZALITI CVIJEĆE; ZALITI CVJEĆE; ZALITI CVJECE,Što sam zaboravio napraviti?,
,Spremanje,canvas.Screen,2_5_2,,,,,,response,1164.800000023839,112153,112147.6,112164.3,113329.10000002384,113330,2024-07-30T17:06:35.911Z,113331.8,0BJtjcDyfZ,incremental,anketa,6645cf40bc81b65c5faccf1d,participant,hcpib7dulz8ntnec,,,mousedown,,Čije sam cvijeće izašao iz kuće i zaboravio zaliti?,Izašao sam iz kuće i zaboravio zaliti majkino cvijeće.,csi,0,0,4,ZALITI MAJKINO CVIJEĆE; ZALITI MAMINO CVIJECE; ZALITI CVIJECE MAJKE; ZALITI MAJČINO CVIJEĆE; ZALITI CVIJEĆE MAJKE; ZALITI MAJKINO CVIJECE; MAJKINO CVIJEĆE ZALITI; MAJKINO CVIJECE ZALITI; ZALITI CVIJECE; ZALITI CVIJEĆE; ZALITI CVJEĆE; ZALITI CVJECE,Što sam zaboravio napraviti?,
,Question form,html.Form,2_5_3,,,,,,form submission,7269.500000071523,113330,113315.2,113331.8,120601.30000007153,120601.5,2024-07-30T17:06:43.183Z,120604.462,0BJtjcDyfZ,incremental,anketa,6645cf40bc81b65c5faccf1d,participant,hcpib7dulz8ntnec,,,,cvijeće,Čije sam cvijeće izašao iz kuće i zaboravio zaliti?,Izašao sam iz kuće i zaboravio zaliti majkino cvijeće.,csi,0,0,4,ZALITI MAJKINO CVIJEĆE; ZALITI MAMINO CVIJECE; ZALITI CVIJECE MAJKE; ZALITI MAJČINO CVIJEĆE; ZALITI CVIJEĆE MAJKE; ZALITI MAJKINO CVIJECE; MAJKINO CVIJEĆE ZALITI; MAJKINO CVIJECE ZALITI; ZALITI CVIJECE; ZALITI CVIJEĆE; ZALITI CVJEĆE; ZALITI CVJECE,Što sam zaboravio napraviti?,
,Answer indication,canvas.Screen,2_5_4,,,,,,response,2836.6380000238423,120601.90000009537,120604.462,120604.462,123441.10000002384,123442.20000004768,2024-07-30T17:06:46.024Z,123456.8,0BJtjcDyfZ,incremental,anketa,6645cf40bc81b65c5faccf1d,participant,hcpib7dulz8ntnec,,,mousedown,,Čije sam cvijeće izašao iz kuće i zaboravio zaliti?,Izašao sam iz kuće i zaboravio zaliti majkino cvijeće.,csi,0,0,4,ZALITI MAJKINO CVIJEĆE; ZALITI MAMINO CVIJECE; ZALITI CVIJECE MAJKE; ZALITI MAJČINO CVIJEĆE; ZALITI CVIJEĆE MAJKE; ZALITI MAJKINO CVIJECE; MAJKINO CVIJEĆE ZALITI; MAJKINO CVIJECE ZALITI; ZALITI CVIJECE; ZALITI CVIJEĆE; ZALITI CVJEĆE; ZALITI CVJECE,Što sam zaboravio napraviti?,
,inter-stimulus,canvas.Screen,2_5_5,,,,,,response,1480.1000000953645,123442.40000009537,123440.1,123456.8,124936.90000009537,124937.80000007153,2024-07-30T17:06:47.519Z,124941.3,0BJtjcDyfZ,incremental,anketa,6645cf40bc81b65c5faccf1d,participant,hcpib7dulz8ntnec,,,mousedown,,Čije sam cvijeće izašao iz kuće i zaboravio zaliti?,Izašao sam iz kuće i zaboravio zaliti majkino cvijeće.,csi,0,0,4,ZALITI MAJKINO CVIJEĆE; ZALITI MAMINO CVIJECE; ZALITI CVIJECE MAJKE; ZALITI MAJČINO CVIJEĆE; ZALITI CVIJEĆE MAJKE; ZALITI MAJKINO CVIJECE; MAJKINO CVIJEĆE ZALITI; MAJKINO CVIJECE ZALITI; ZALITI CVIJECE; ZALITI CVIJEĆE; ZALITI CVJEĆE; ZALITI CVJECE,Što sam zaboravio napraviti?,
,Sequence,flow.Sequence,2_5,,,,,,completion,27151.100000095365,97770.40000009537,97769.1,97785.8,124936.90000009537,124938,2024-07-30T17:06:47.519Z,124941.3,0BJtjcDyfZ,incremental,anketa,6645cf40bc81b65c5faccf1d,participant,hcpib7dulz8ntnec,,,,,Čije sam cvijeće izašao iz kuće i zaboravio zaliti?,Izašao sam iz kuće i zaboravio zaliti majkino cvijeće.,csi,0,0,4,ZALITI MAJKINO CVIJEĆE; ZALITI MAMINO CVIJECE; ZALITI CVIJECE MAJKE; ZALITI MAJČINO CVIJEĆE; ZALITI CVIJEĆE MAJKE; ZALITI MAJKINO CVIJECE; MAJKINO CVIJEĆE ZALITI; MAJKINO CVIJECE ZALITI; ZALITI CVIJECE; ZALITI CVIJEĆE; ZALITI CVJEĆE; ZALITI CVJECE,Što sam zaboravio napraviti?,
,context,canvas.Screen,2_6_0_0,,,,,,response,2483.1000000953645,124938.20000004768,124924.7,124941.3,127424.40000009537,127424.80000007153,2024-07-30T17:06:50.006Z,127426.8,0BJtjcDyfZ,incremental,anketa,6645cf40bc81b65c5faccf1d,participant,hcpib7dulz8ntnec,,,click,,"Što je on plakao, čitajući?","On je plakao, čitajući knjigu.",ai,,,22,,,
,Timer frame,html.Frame,2_6_0,,,,,,,2483.6000000953645,124938.10000002384,124924.7,124941.3,127424.90000009537,127425,2024-07-30T17:06:50.006Z,127426.8,0BJtjcDyfZ,incremental,anketa,6645cf40bc81b65c5faccf1d,participant,hcpib7dulz8ntnec,,,,,"Što je on plakao, čitajući?","On je plakao, čitajući knjigu.",ai,,,22,,,
,stimulus,canvas.Screen,2_6_1_0,,,,,,response,3797.6000000953645,127425.20000004768,127410.1,127426.8,131224.40000009537,131224.90000009537,2024-07-30T17:06:53.806Z,131230,0BJtjcDyfZ,incremental,anketa,6645cf40bc81b65c5faccf1d,participant,hcpib7dulz8ntnec,,3,click @3,,"Što je on plakao, čitajući?","On je plakao, čitajući knjigu.",ai,,,22,,,
,Timer frame,html.Frame,2_6_1,,,,,,,3798.199999999997,127425,127410.1,127426.8,131225,131225,2024-07-30T17:06:53.806Z,131230,0BJtjcDyfZ,incremental,anketa,6645cf40bc81b65c5faccf1d,participant,hcpib7dulz8ntnec,,,,,"Što je on plakao, čitajući?","On je plakao, čitajući knjigu.",ai,,,22,,,
,Spremanje,canvas.Screen,2_6_2,,,,,,skipped,,131225,,,131225,131225.10000002384,2024-07-30T17:06:53.806Z,131230,0BJtjcDyfZ,incremental,anketa,6645cf40bc81b65c5faccf1d,participant,hcpib7dulz8ntnec,,,,,"Što je on plakao, čitajući?","On je plakao, čitajući knjigu.",ai,,,22,,,
,Question form,html.Form,2_6_3,,,,,,skipped,,131225.10000002384,,,131225,131225.10000002384,2024-07-30T17:06:53.806Z,131230,0BJtjcDyfZ,incremental,anketa,6645cf40bc81b65c5faccf1d,participant,hcpib7dulz8ntnec,,,,,"Što je on plakao, čitajući?","On je plakao, čitajući knjigu.",ai,,,22,,,
,Answer indication,canvas.Screen,2_6_4,,,,,,skipped,,131225.5,,,131225,131225.5,2024-07-30T17:06:53.807Z,131230,0BJtjcDyfZ,incremental,anketa,6645cf40bc81b65c5faccf1d,participant,hcpib7dulz8ntnec,,,,,"Što je on plakao, čitajući?","On je plakao, čitajući knjigu.",ai,,,22,,,
,inter-stimulus,canvas.Screen,2_6_5,,,,,,response,1395.1000000238419,131225.70000004768,131229.796,131230,132625.10000002384,132625.90000009537,2024-07-30T17:06:55.207Z,132631,0BJtjcDyfZ,incremental,anketa,6645cf40bc81b65c5faccf1d,participant,hcpib7dulz8ntnec,,,mousedown,,"Što je on plakao, čitajući?","On je plakao, čitajući knjigu.",ai,,,22,,,
,Sequence,flow.Sequence,2_6,,,,,,completion,7683.800000023839,124938,124924.7,124941.3,132625.10000002384,132626,2024-07-30T17:06:55.207Z,132631,0BJtjcDyfZ,incremental,anketa,6645cf40bc81b65c5faccf1d,participant,hcpib7dulz8ntnec,,,,,"Što je on plakao, čitajući?","On je plakao, čitajući knjigu.",ai,,,22,,,
,context,canvas.Screen,2_7_0_0,,,,,,response,2433.4000000953674,132626.10000002384,132614.4,132631,135064.40000009537,135064.80000007153,2024-07-30T17:06:57.646Z,135083,0BJtjcDyfZ,incremental,anketa,6645cf40bc81b65c5faccf1d,participant,hcpib7dulz8ntnec,,,click,,Kakva čovjeka svatko tko poznaje može potvrditi njegov integritet??,Svatko tko poznaje onog čovjeka može potvrditi njegov integritet..,si,33,31,12,,,2305
,Timer frame,html.Frame,2_7_0,,,,,,,2433.9000000953674,132626.10000002384,132614.4,132631,135064.90000009537,135064.90000009537,2024-07-30T17:06:57.646Z,135083,0BJtjcDyfZ,incremental,anketa,6645cf40bc81b65c5faccf1d,participant,hcpib7dulz8ntnec,,,,,Kakva čovjeka svatko tko poznaje može potvrditi njegov integritet??,Svatko tko poznaje onog čovjeka može potvrditi njegov integritet..,si,33,31,12,,,2305
,stimulus,canvas.Screen,2_7_1_0,,,,,,response,4389.900000095367,135065.10000002384,135066.4,135083,139472.90000009537,139473.80000007153,2024-07-30T17:07:02.055Z,139503.3,0BJtjcDyfZ,incremental,anketa,6645cf40bc81b65c5faccf1d,participant,hcpib7dulz8ntnec,,2,click @2,,Kakva čovjeka svatko tko poznaje može potvrditi njegov integritet??,Svatko tko poznaje onog čovjeka može potvrditi njegov integritet..,si,33,31,12,,,2305
,Timer frame,html.Frame,2_7_1,,,,,,,4390.900000095367,135065,135066.4,135083,139473.90000009537,139474,2024-07-30T17:07:02.055Z,139503.3,0BJtjcDyfZ,incremental,anketa,6645cf40bc81b65c5faccf1d,participant,hcpib7dulz8ntnec,,,,,Kakva čovjeka svatko tko poznaje može potvrditi njegov integritet??,Svatko tko poznaje onog čovjeka može potvrditi njegov integritet..,si,33,31,12,,,2305
,Spremanje,canvas.Screen,2_7_2,,,,,,skipped,,139474,,,139473.90000009537,139474,2024-07-30T17:07:02.055Z,139503.3,0BJtjcDyfZ,incremental,anketa,6645cf40bc81b65c5faccf1d,participant,hcpib7dulz8ntnec,,,,,Kakva čovjeka svatko tko poznaje može potvrditi njegov integritet??,Svatko tko poznaje onog čovjeka može potvrditi njegov integritet..,si,33,31,12,,,2305
,Question form,html.Form,2_7_3,,,,,,skipped,,139474,,,139473.90000009537,139474.10000002384,2024-07-30T17:07:02.055Z,139503.3,0BJtjcDyfZ,incremental,anketa,6645cf40bc81b65c5faccf1d,participant,hcpib7dulz8ntnec,,,,,Kakva čovjeka svatko tko poznaje može potvrditi njegov integritet??,Svatko tko poznaje onog čovjeka može potvrditi njegov integritet..,si,33,31,12,,,2305
,Answer indication,canvas.Screen,2_7_4,,,,,,skipped,,139474.60000002384,,,139473.90000009537,139474.60000002384,2024-07-30T17:07:02.056Z,139503.3,0BJtjcDyfZ,incremental,anketa,6645cf40bc81b65c5faccf1d,participant,hcpib7dulz8ntnec,,,,,Kakva čovjeka svatko tko poznaje može potvrditi njegov integritet??,Svatko tko poznaje onog čovjeka može potvrditi njegov integritet..,si,33,31,12,,,2305
,inter-stimulus,canvas.Screen,2_7_5,,,,,,response,1249.7000000000116,139474.60000002384,139486.7,139503.3,140753,140754,2024-07-30T17:07:03.335Z,140771.1,0BJtjcDyfZ,incremental,anketa,6645cf40bc81b65c5faccf1d,participant,hcpib7dulz8ntnec,,,mousedown,,Kakva čovjeka svatko tko poznaje može potvrditi njegov integritet??,Svatko tko poznaje onog čovjeka može potvrditi njegov integritet..,si,33,31,12,,,2305
,Sequence,flow.Sequence,2_7,,,,,,completion,8122,132626,132614.4,132631,140753,140754.10000002384,2024-07-30T17:07:03.335Z,140771.1,0BJtjcDyfZ,incremental,anketa,6645cf40bc81b65c5faccf1d,participant,hcpib7dulz8ntnec,,,,,Kakva čovjeka svatko tko poznaje može potvrditi njegov integritet??,Svatko tko poznaje onog čovjeka može potvrditi njegov integritet..,si,33,31,12,,,2305
,context,canvas.Screen,2_8_0_0,,,,,,response,2125.399999999994,140754.30000007153,140754.3,140771.1,142896.5,142897,2024-07-30T17:07:05.478Z,142922.8,0BJtjcDyfZ,incremental,anketa,6645cf40bc81b65c5faccf1d,participant,hcpib7dulz8ntnec,,,click,,Petar i Mara su jučer otišli u kino pogledati dobru komediju..,Jučer su Petar i Mara otišli u kino pogledati dobru komediju..,gf,35,35,46,,,
,Timer frame,html.Frame,2_8_0,,,,,,,2126.000000023836,140754.20000004768,140754.3,140771.1,142897.10000002384,142897.10000002384,2024-07-30T17:07:05.479Z,142922.8,0BJtjcDyfZ,incremental,anketa,6645cf40bc81b65c5faccf1d,participant,hcpib7dulz8ntnec,,,,,Petar i Mara su jučer otišli u kino pogledati dobru komediju..,Jučer su Petar i Mara otišli u kino pogledati dobru komediju..,gf,35,35,46,,,
,stimulus,canvas.Screen,2_8_1_0,,,,,,response,2509.600000095379,142897.30000007153,142906.1,142922.8,145432.40000009537,145432.90000009537,2024-07-30T17:07:08.014Z,145458.2,0BJtjcDyfZ,incremental,anketa,6645cf40bc81b65c5faccf1d,participant,hcpib7dulz8ntnec,,7,click @7,,Petar i Mara su jučer otišli u kino pogledati dobru komediju..,Jučer su Petar i Mara otišli u kino pogledati dobru komediju..,gf,35,35,46,,,
,Timer frame,html.Frame,2_8_1,,,,,,,2510.100000095379,142897.20000004768,142906.1,142922.8,145432.90000009537,145433.10000002384,2024-07-30T17:07:08.014Z,145458.2,0BJtjcDyfZ,incremental,anketa,6645cf40bc81b65c5faccf1d,participant,hcpib7dulz8ntnec,,,,,Petar i Mara su jučer otišli u kino pogledati dobru komediju..,Jučer su Petar i Mara otišli u kino pogledati dobru komediju..,gf,35,35,46,,,
,Spremanje,canvas.Screen,2_8_2,,,,,,skipped,,145433.10000002384,,,145432.90000009537,145433.10000002384,2024-07-30T17:07:08.014Z,145458.2,0BJtjcDyfZ,incremental,anketa,6645cf40bc81b65c5faccf1d,participant,hcpib7dulz8ntnec,,,,,Petar i Mara su jučer otišli u kino pogledati dobru komediju..,Jučer su Petar i Mara otišli u kino pogledati dobru komediju..,gf,35,35,46,,,
,Question form,html.Form,2_8_3,,,,,,skipped,,145433.20000004768,,,145432.90000009537,145433.20000004768,2024-07-30T17:07:08.015Z,145458.2,0BJtjcDyfZ,incremental,anketa,6645cf40bc81b65c5faccf1d,participant,hcpib7dulz8ntnec,,,,,Petar i Mara su jučer otišli u kino pogledati dobru komediju..,Jučer su Petar i Mara otišli u kino pogledati dobru komediju..,gf,35,35,46,,,
,Answer indication,canvas.Screen,2_8_4,,,,,,skipped,,145433.60000002384,,,145432.90000009537,145433.60000002384,2024-07-30T17:07:08.015Z,145458.2,0BJtjcDyfZ,incremental,anketa,6645cf40bc81b65c5faccf1d,participant,hcpib7dulz8ntnec,,,,,Petar i Mara su jučer otišli u kino pogledati dobru komediju..,Jučer su Petar i Mara otišli u kino pogledati dobru komediju..,gf,35,35,46,,,
,inter-stimulus,canvas.Screen,2_8_5,,,,,,response,1350.7000000953558,145433.60000002384,145441.6,145458.2,146808.90000009537,146810,2024-07-30T17:07:09.391Z,146826,0BJtjcDyfZ,incremental,anketa,6645cf40bc81b65c5faccf1d,participant,hcpib7dulz8ntnec,,,mousedown,,Petar i Mara su jučer otišli u kino pogledati dobru komediju..,Jučer su Petar i Mara otišli u kino pogledati dobru komediju..,gf,35,35,46,,,
,Sequence,flow.Sequence,2_8,,,,,,completion,6037.800000095362,140754.10000002384,140754.3,140771.1,146808.90000009537,146810.20000004768,2024-07-30T17:07:09.392Z,146826,0BJtjcDyfZ,incremental,anketa,6645cf40bc81b65c5faccf1d,participant,hcpib7dulz8ntnec,,,,,Petar i Mara su jučer otišli u kino pogledati dobru komediju..,Jučer su Petar i Mara otišli u kino pogledati dobru komediju..,gf,35,35,46,,,
,context,canvas.Screen,2_9_0_0,,,,,,response,2390.4000000953674,146810.40000009537,146809.3,146826,149216.40000009537,149217,2024-07-30T17:07:11.798Z,149244.7,0BJtjcDyfZ,incremental,anketa,6645cf40bc81b65c5faccf1d,participant,hcpib7dulz8ntnec,,,click,,U sutra ne samo svatko jedan može gledati.,Ne može svatko gledati u sutra.,nf,,,45,,,
,Timer frame,html.Frame,2_9_0,,,,,,,2391.100000023842,146810.30000007153,146809.3,146826,149217.10000002384,149217.10000002384,2024-07-30T17:07:11.798Z,149244.7,0BJtjcDyfZ,incremental,anketa,6645cf40bc81b65c5faccf1d,participant,hcpib7dulz8ntnec,,,,,U sutra ne samo svatko jedan može gledati.,Ne može svatko gledati u sutra.,nf,,,45,,,
,stimulus,canvas.Screen,2_9_1_0,,,,,,response,3555.7999999999884,149217.20000004768,149228,149244.7,152800.5,152801,2024-07-30T17:07:15.382Z,152814.3,0BJtjcDyfZ,incremental,anketa,6645cf40bc81b65c5faccf1d,participant,hcpib7dulz8ntnec,,3,click @3,,U sutra ne samo svatko jedan može gledati.,Ne može svatko gledati u sutra.,nf,,,45,,,
,Timer frame,html.Frame,2_9_1,,,,,,,3556.40000002383,149217.10000002384,149228,149244.7,152801.10000002384,152801.10000002384,2024-07-30T17:07:15.382Z,152814.3,0BJtjcDyfZ,incremental,anketa,6645cf40bc81b65c5faccf1d,participant,hcpib7dulz8ntnec,,,,,U sutra ne samo svatko jedan može gledati.,Ne može svatko gledati u sutra.,nf,,,45,,,
,Spremanje,canvas.Screen,2_9_2,,,,,,skipped,,152801.20000004768,,,152801.10000002384,152801.20000004768,2024-07-30T17:07:15.383Z,152814.3,0BJtjcDyfZ,incremental,anketa,6645cf40bc81b65c5faccf1d,participant,hcpib7dulz8ntnec,,,,,U sutra ne samo svatko jedan može gledati.,Ne može svatko gledati u sutra.,nf,,,45,,,
,Question form,html.Form,2_9_3,,,,,,skipped,,152801.30000007153,,,152801.10000002384,152801.30000007153,2024-07-30T17:07:15.383Z,152814.3,0BJtjcDyfZ,incremental,anketa,6645cf40bc81b65c5faccf1d,participant,hcpib7dulz8ntnec,,,,,U sutra ne samo svatko jedan može gledati.,Ne može svatko gledati u sutra.,nf,,,45,,,
,Answer indication,canvas.Screen,2_9_4,,,,,,skipped,,152801.70000004768,,,152801.10000002384,152801.80000007153,2024-07-30T17:07:15.383Z,152814.3,0BJtjcDyfZ,incremental,anketa,6645cf40bc81b65c5faccf1d,participant,hcpib7dulz8ntnec,,,,,U sutra ne samo svatko jedan može gledati.,Ne može svatko gledati u sutra.,nf,,,45,,,
,inter-stimulus,canvas.Screen,2_9_5,,,,,,response,1130.8000000238535,152801.80000007153,152797.6,152814.3,153945.10000002384,153946,2024-07-30T17:07:16.527Z,153948.5,0BJtjcDyfZ,incremental,anketa,6645cf40bc81b65c5faccf1d,participant,hcpib7dulz8ntnec,,,mousedown,,U sutra ne samo svatko jedan može gledati.,Ne može svatko gledati u sutra.,nf,,,45,,,
,Sequence,flow.Sequence,2_9,,,,,,completion,7119.100000023842,146810.30000007153,146809.3,146826,153945.10000002384,153946.10000002384,2024-07-30T17:07:16.527Z,153948.5,0BJtjcDyfZ,incremental,anketa,6645cf40bc81b65c5faccf1d,participant,hcpib7dulz8ntnec,,,,,U sutra ne samo svatko jedan može gledati.,Ne može svatko gledati u sutra.,nf,,,45,,,
,context,canvas.Screen,2_10_0_0,,,,,,response,2307.9000000953674,153946.30000007153,153931.9,153948.5,156256.40000009537,156256.90000009537,2024-07-30T17:07:18.838Z,156267.1,0BJtjcDyfZ,incremental,anketa,6645cf40bc81b65c5faccf1d,participant,hcpib7dulz8ntnec,,,click,,Jedna vrlo duboka tamo postoji pećina.,Tamo postoji jedna vrlo duboka pećina.,lbc,,,37,,,
,Timer frame,html.Frame,2_10_0,,,,,,,2308.4000000953674,153946.20000004768,153931.9,153948.5,156256.90000009537,156257,2024-07-30T17:07:18.838Z,156267.1,0BJtjcDyfZ,incremental,anketa,6645cf40bc81b65c5faccf1d,participant,hcpib7dulz8ntnec,,,,,Jedna vrlo duboka tamo postoji pećina.,Tamo postoji jedna vrlo duboka pećina.,lbc,,,37,,,
,stimulus,canvas.Screen,2_10_1_0,,,,,,response,4029.399999999994,156257.20000004768,156250.466,156267.1,160296.5,160297,2024-07-30T17:07:22.878Z,160320.5,0BJtjcDyfZ,incremental,anketa,6645cf40bc81b65c5faccf1d,participant,hcpib7dulz8ntnec,,5,click @5,,Jedna vrlo duboka tamo postoji pećina.,Tamo postoji jedna vrlo duboka pećina.,lbc,,,37,,,
,Timer frame,html.Frame,2_10_1,,,,,,,4029.899999999994,156257,156250.466,156267.1,160297,160297,2024-07-30T17:07:22.878Z,160320.5,0BJtjcDyfZ,incremental,anketa,6645cf40bc81b65c5faccf1d,participant,hcpib7dulz8ntnec,,,,,Jedna vrlo duboka tamo postoji pećina.,Tamo postoji jedna vrlo duboka pećina.,lbc,,,37,,,
,Spremanje,canvas.Screen,2_10_2,,,,,,skipped,,160297.10000002384,,,160297,160297.10000002384,2024-07-30T17:07:22.878Z,160320.5,0BJtjcDyfZ,incremental,anketa,6645cf40bc81b65c5faccf1d,participant,hcpib7dulz8ntnec,,,,,Jedna vrlo duboka tamo postoji pećina.,Tamo postoji jedna vrlo duboka pećina.,lbc,,,37,,,
,Question form,html.Form,2_10_3,,,,,,skipped,,160297.20000004768,,,160297,160297.20000004768,2024-07-30T17:07:22.879Z,160320.5,0BJtjcDyfZ,incremental,anketa,6645cf40bc81b65c5faccf1d,participant,hcpib7dulz8ntnec,,,,,Jedna vrlo duboka tamo postoji pećina.,Tamo postoji jedna vrlo duboka pećina.,lbc,,,37,,,
,Answer indication,canvas.Screen,2_10_4,,,,,,skipped,,160297.60000002384,,,160297,160297.60000002384,2024-07-30T17:07:22.879Z,160320.5,0BJtjcDyfZ,incremental,anketa,6645cf40bc81b65c5faccf1d,participant,hcpib7dulz8ntnec,,,,,Jedna vrlo duboka tamo postoji pećina.,Tamo postoji jedna vrlo duboka pećina.,lbc,,,37,,,
,inter-stimulus,canvas.Screen,2_10_5,,,,,,response,1032.5,160297.60000002384,160303.8,160320.5,161353,161353.90000009537,2024-07-30T17:07:23.935Z,161354.6,0BJtjcDyfZ,incremental,anketa,6645cf40bc81b65c5faccf1d,participant,hcpib7dulz8ntnec,,,mousedown,,Jedna vrlo duboka tamo postoji pećina.,Tamo postoji jedna vrlo duboka pećina.,lbc,,,37,,,
,Sequence,flow.Sequence,2_10,,,,,,completion,7404.5,153946.10000002384,153931.9,153948.5,161353,161354,2024-07-30T17:07:23.935Z,161354.6,0BJtjcDyfZ,incremental,anketa,6645cf40bc81b65c5faccf1d,participant,hcpib7dulz8ntnec,,,,,Jedna vrlo duboka tamo postoji pećina.,Tamo postoji jedna vrlo duboka pećina.,lbc,,,37,,,
,context,canvas.Screen,2_11_0_0,,,,,,response,2229.899999999994,161354.10000002384,161354.596,161354.6,163584.5,163585,2024-07-30T17:07:26.166Z,163589.8,0BJtjcDyfZ,incremental,anketa,6645cf40bc81b65c5faccf1d,participant,hcpib7dulz8ntnec,,,click,,Večeras je Anna nalakirala nokte.,Anna je večeras nalakirala nokte.,gf,,,49,,,
,Timer frame,html.Frame,2_11_0,,,,,,,2230.600000047678,161354,161354.596,161354.6,163585.20000004768,163585.30000007153,2024-07-30T17:07:26.167Z,163589.8,0BJtjcDyfZ,incremental,anketa,6645cf40bc81b65c5faccf1d,participant,hcpib7dulz8ntnec,,,,,Večeras je Anna nalakirala nokte.,Anna je večeras nalakirala nokte.,gf,,,49,,,
,stimulus,canvas.Screen,2_11_1_0,,,,,,response,3699.3000000238535,163585.40000009537,163573.2,163589.8,167289.10000002384,167289.90000009537,2024-07-30T17:07:29.871Z,167309.5,0BJtjcDyfZ,incremental,anketa,6645cf40bc81b65c5faccf1d,participant,hcpib7dulz8ntnec,,7,click @7,,Večeras je Anna nalakirala nokte.,Anna je večeras nalakirala nokte.,gf,,,49,,,
,Timer frame,html.Frame,2_11_1,,,,,,,3700.100000095379,163585.30000007153,163573.2,163589.8,167289.90000009537,167290,2024-07-30T17:07:29.871Z,167309.5,0BJtjcDyfZ,incremental,anketa,6645cf40bc81b65c5faccf1d,participant,hcpib7dulz8ntnec,,,,,Večeras je Anna nalakirala nokte.,Anna je večeras nalakirala nokte.,gf,,,49,,,
,Spremanje,canvas.Screen,2_11_2,,,,,,skipped,,167290,,,167289.90000009537,167290.10000002384,2024-07-30T17:07:29.871Z,167309.5,0BJtjcDyfZ,incremental,anketa,6645cf40bc81b65c5faccf1d,participant,hcpib7dulz8ntnec,,,,,Večeras je Anna nalakirala nokte.,Anna je večeras nalakirala nokte.,gf,,,49,,,
,Question form,html.Form,2_11_3,,,,,,skipped,,167290.10000002384,,,167289.90000009537,167290.10000002384,2024-07-30T17:07:29.871Z,167309.5,0BJtjcDyfZ,incremental,anketa,6645cf40bc81b65c5faccf1d,participant,hcpib7dulz8ntnec,,,,,Večeras je Anna nalakirala nokte.,Anna je večeras nalakirala nokte.,gf,,,49,,,
,Answer indication,canvas.Screen,2_11_4,,,,,,skipped,,167290.5,,,167289.90000009537,167290.70000004768,2024-07-30T17:07:29.872Z,167309.5,0BJtjcDyfZ,incremental,anketa,6645cf40bc81b65c5faccf1d,participant,hcpib7dulz8ntnec,,,,,Večeras je Anna nalakirala nokte.,Anna je večeras nalakirala nokte.,gf,,,49,,,
,inter-stimulus,canvas.Screen,2_11_5,,,,,,response,1749,167290.70000004768,167292.9,167309.5,169058.5,169059.20000004768,2024-07-30T17:07:31.641Z,169061,0BJtjcDyfZ,incremental,anketa,6645cf40bc81b65c5faccf1d,participant,hcpib7dulz8ntnec,,,mousedown,,Večeras je Anna nalakirala nokte.,Anna je večeras nalakirala nokte.,gf,,,49,,,
,Sequence,flow.Sequence,2_11,,,,,,completion,7703.899999999994,161354,161354.596,161354.6,169058.5,169059.30000007153,2024-07-30T17:07:31.641Z,169061,0BJtjcDyfZ,incremental,anketa,6645cf40bc81b65c5faccf1d,participant,hcpib7dulz8ntnec,,,,,Večeras je Anna nalakirala nokte.,Anna je večeras nalakirala nokte.,gf,,,49,,,
,context,canvas.Screen,2_12_0_0,,,,,,response,2667.5,169059.5,169060.614,169061,171728.5,171728.90000009537,2024-07-30T17:07:34.310Z,171729.9,0BJtjcDyfZ,incremental,anketa,6645cf40bc81b65c5faccf1d,participant,hcpib7dulz8ntnec,,,click,,Nešto se mu otac za punoljetnost poklonio.,Otac mu je za punoljetnost poklonio crveni Ferrari.,nf,,,42,,,
,Timer frame,html.Frame,2_12_0,,,,,,,2668.100000023842,169059.5,169060.614,169061,171729.10000002384,171729.10000002384,2024-07-30T17:07:34.310Z,171729.9,0BJtjcDyfZ,incremental,anketa,6645cf40bc81b65c5faccf1d,participant,hcpib7dulz8ntnec,,,,,Nešto se mu otac za punoljetnost poklonio.,Otac mu je za punoljetnost poklonio crveni Ferrari.,nf,,,42,,,
,stimulus,canvas.Screen,2_12_1_0,,,,,,response,5959.100000000006,171729.20000004768,171729.764,171729.9,177689,177689.5,2024-07-30T17:07:40.271Z,177718.1,0BJtjcDyfZ,incremental,anketa,6645cf40bc81b65c5faccf1d,participant,hcpib7dulz8ntnec,,3,click @3,,Nešto se mu otac za punoljetnost poklonio.,Otac mu je za punoljetnost poklonio crveni Ferrari.,nf,,,42,,,
,Timer frame,html.Frame,2_12_1,,,,,,,5959.700000023848,171729.10000002384,171729.764,171729.9,177689.60000002384,177689.60000002384,2024-07-30T17:07:40.271Z,177718.1,0BJtjcDyfZ,incremental,anketa,6645cf40bc81b65c5faccf1d,participant,hcpib7dulz8ntnec,,,,,Nešto se mu otac za punoljetnost poklonio.,Otac mu je za punoljetnost poklonio crveni Ferrari.,nf,,,42,,,
,Spremanje,canvas.Screen,2_12_2,,,,,,skipped,,177689.70000004768,,,177689.60000002384,177689.70000004768,2024-07-30T17:07:40.271Z,177718.1,0BJtjcDyfZ,incremental,anketa,6645cf40bc81b65c5faccf1d,participant,hcpib7dulz8ntnec,,,,,Nešto se mu otac za punoljetnost poklonio.,Otac mu je za punoljetnost poklonio crveni Ferrari.,nf,,,42,,,
,Question form,html.Form,2_12_3,,,,,,skipped,,177689.80000007153,,,177689.60000002384,177689.80000007153,2024-07-30T17:07:40.271Z,177718.1,0BJtjcDyfZ,incremental,anketa,6645cf40bc81b65c5faccf1d,participant,hcpib7dulz8ntnec,,,,,Nešto se mu otac za punoljetnost poklonio.,Otac mu je za punoljetnost poklonio crveni Ferrari.,nf,,,42,,,
,Answer indication,canvas.Screen,2_12_4,,,,,,skipped,,177690.20000004768,,,177689.60000002384,177690.20000004768,2024-07-30T17:07:40.272Z,177718.1,0BJtjcDyfZ,incremental,anketa,6645cf40bc81b65c5faccf1d,participant,hcpib7dulz8ntnec,,,,,Nešto se mu otac za punoljetnost poklonio.,Otac mu je za punoljetnost poklonio crveni Ferrari.,nf,,,42,,,
,inter-stimulus,canvas.Screen,2_12_5,,,,,,response,1283.2000000715198,177690.30000007153,177701.432,177718.1,179001.30000007153,179002,2024-07-30T17:07:41.583Z,179002.5,0BJtjcDyfZ,incremental,anketa,6645cf40bc81b65c5faccf1d,participant,hcpib7dulz8ntnec,,,mousedown,,Nešto se mu otac za punoljetnost poklonio.,Otac mu je za punoljetnost poklonio crveni Ferrari.,nf,,,42,,,
,Sequence,flow.Sequence,2_12,,,,,,completion,9940.300000071526,169059.5,169060.614,169061,179001.30000007153,179002.10000002384,2024-07-30T17:07:41.583Z,179002.5,0BJtjcDyfZ,incremental,anketa,6645cf40bc81b65c5faccf1d,participant,hcpib7dulz8ntnec,,,,,Nešto se mu otac za punoljetnost poklonio.,Otac mu je za punoljetnost poklonio crveni Ferrari.,nf,,,42,,,
,context,canvas.Screen,2_13_0_0,,,,,,response,2414,179002.20000004768,179002.394,179002.5,181416.5,181417,2024-07-30T17:07:43.998Z,181421.2,0BJtjcDyfZ,incremental,anketa,6645cf40bc81b65c5faccf1d,participant,hcpib7dulz8ntnec,,,click,,Stare su samo Čehovljeve priče bile u ovoj knjižnici..,Samo su Čehovljeve priče bile stare u ovoj knjižnici..,di,35,35,33,,,
,Timer frame,html.Frame,2_13_0,,,,,,,2414.5,179002.20000004768,179002.394,179002.5,181417,181417.10000002384,2024-07-30T17:07:43.998Z,181421.2,0BJtjcDyfZ,incremental,anketa,6645cf40bc81b65c5faccf1d,participant,hcpib7dulz8ntnec,,,,,Stare su samo Čehovljeve priče bile u ovoj knjižnici..,Samo su Čehovljeve priče bile stare u ovoj knjižnici..,di,35,35,33,,,
,stimulus,canvas.Screen,2_13_1_0,,,,,,response,4339.299999999988,181417.30000007153,181421.032,181421.2,185760.5,185761.10000002384,2024-07-30T17:07:48.342Z,185774.7,0BJtjcDyfZ,incremental,anketa,6645cf40bc81b65c5faccf1d,participant,hcpib7dulz8ntnec,,6,click @6,,Stare su samo Čehovljeve priče bile u ovoj knjižnici..,Samo su Čehovljeve priče bile stare u ovoj knjižnici..,di,35,35,33,,,
,Timer frame,html.Frame,2_13_1,,,,,,,4340.000000047672,181417.10000002384,181421.032,181421.2,185761.20000004768,185761.20000004768,2024-07-30T17:07:48.342Z,185774.7,0BJtjcDyfZ,incremental,anketa,6645cf40bc81b65c5faccf1d,participant,hcpib7dulz8ntnec,,,,,Stare su samo Čehovljeve priče bile u ovoj knjižnici..,Samo su Čehovljeve priče bile stare u ovoj knjižnici..,di,35,35,33,,,
,Spremanje,canvas.Screen,2_13_2,,,,,,skipped,,185761.30000007153,,,185761.20000004768,185761.30000007153,2024-07-30T17:07:48.342Z,185774.7,0BJtjcDyfZ,incremental,anketa,6645cf40bc81b65c5faccf1d,participant,hcpib7dulz8ntnec,,,,,Stare su samo Čehovljeve priče bile u ovoj knjižnici..,Samo su Čehovljeve priče bile stare u ovoj knjižnici..,di,35,35,33,,,
,Question form,html.Form,2_13_3,,,,,,skipped,,185761.30000007153,,,185761.20000004768,185761.30000007153,2024-07-30T17:07:48.342Z,185774.7,0BJtjcDyfZ,incremental,anketa,6645cf40bc81b65c5faccf1d,participant,hcpib7dulz8ntnec,,,,,Stare su samo Čehovljeve priče bile u ovoj knjižnici..,Samo su Čehovljeve priče bile stare u ovoj knjižnici..,di,35,35,33,,,
,Answer indication,canvas.Screen,2_13_4,,,,,,skipped,,185761.80000007153,,,185761.20000004768,185761.80000007153,2024-07-30T17:07:48.343Z,185774.7,0BJtjcDyfZ,incremental,anketa,6645cf40bc81b65c5faccf1d,participant,hcpib7dulz8ntnec,,,,,Stare su samo Čehovljeve priče bile u ovoj knjižnici..,Samo su Čehovljeve priče bile stare u ovoj knjižnici..,di,35,35,33,,,
,inter-stimulus,canvas.Screen,2_13_5,,,,,,response,1442.7000000953558,185761.90000009537,185758,185774.7,187217.40000009537,187218.30000007153,2024-07-30T17:07:49.799Z,187225.9,0BJtjcDyfZ,incremental,anketa,6645cf40bc81b65c5faccf1d,participant,hcpib7dulz8ntnec,,,mousedown,,Stare su samo Čehovljeve priče bile u ovoj knjižnici..,Samo su Čehovljeve priče bile stare u ovoj knjižnici..,di,35,35,33,,,
,Sequence,flow.Sequence,2_13,,,,,,completion,8214.900000095367,179002.20000004768,179002.394,179002.5,187217.40000009537,187218.40000009537,2024-07-30T17:07:49.799Z,187225.9,0BJtjcDyfZ,incremental,anketa,6645cf40bc81b65c5faccf1d,participant,hcpib7dulz8ntnec,,,,,Stare su samo Čehovljeve priče bile u ovoj knjižnici..,Samo su Čehovljeve priče bile stare u ovoj knjižnici..,di,35,35,33,,,
,context,canvas.Screen,2_14_0_0,,,,,,response,2198.600000000006,187218.60000002384,187209.2,187225.9,189424.5,189425,2024-07-30T17:07:52.006Z,189444.3,0BJtjcDyfZ,incremental,anketa,6645cf40bc81b65c5faccf1d,participant,hcpib7dulz8ntnec,,,click,,Što Miloš je opljačkao banku da kupi?,Miloš je opljačkao banku da kupi kuću.,ai,,,20,,,
,Timer frame,html.Frame,2_14_0,,,,,,,2199.100000000006,187218.5,187209.2,187225.9,189425,189425.10000002384,2024-07-30T17:07:52.006Z,189444.3,0BJtjcDyfZ,incremental,anketa,6645cf40bc81b65c5faccf1d,participant,hcpib7dulz8ntnec,,,,,Što Miloš je opljačkao banku da kupi?,Miloš je opljačkao banku da kupi kuću.,ai,,,20,,,
,stimulus,canvas.Screen,2_14_1_0,,,,,,response,3748.600000095379,189425.20000004768,189427.7,189444.3,193192.90000009537,193193.30000007153,2024-07-30T17:07:55.774Z,193214.2,0BJtjcDyfZ,incremental,anketa,6645cf40bc81b65c5faccf1d,participant,hcpib7dulz8ntnec,,2,click @2,,Što Miloš je opljačkao banku da kupi?,Miloš je opljačkao banku da kupi kuću.,ai,,,20,,,
,Timer frame,html.Frame,2_14_1,,,,,,,3749.100000095379,189425.10000002384,189427.7,189444.3,193193.40000009537,193193.5,2024-07-30T17:07:55.774Z,193214.2,0BJtjcDyfZ,incremental,anketa,6645cf40bc81b65c5faccf1d,participant,hcpib7dulz8ntnec,,,,,Što Miloš je opljačkao banku da kupi?,Miloš je opljačkao banku da kupi kuću.,ai,,,20,,,
,Spremanje,canvas.Screen,2_14_2,,,,,,skipped,,193193.5,,,193193.40000009537,193193.5,2024-07-30T17:07:55.774Z,193214.2,0BJtjcDyfZ,incremental,anketa,6645cf40bc81b65c5faccf1d,participant,hcpib7dulz8ntnec,,,,,Što Miloš je opljačkao banku da kupi?,Miloš je opljačkao banku da kupi kuću.,ai,,,20,,,
,Question form,html.Form,2_14_3,,,,,,skipped,,193193.5,,,193193.40000009537,193193.60000002384,2024-07-30T17:07:55.774Z,193214.2,0BJtjcDyfZ,incremental,anketa,6645cf40bc81b65c5faccf1d,participant,hcpib7dulz8ntnec,,,,,Što Miloš je opljačkao banku da kupi?,Miloš je opljačkao banku da kupi kuću.,ai,,,20,,,
,Answer indication,canvas.Screen,2_14_4,,,,,,skipped,,193194,,,193193.40000009537,193194,2024-07-30T17:07:55.775Z,193214.2,0BJtjcDyfZ,incremental,anketa,6645cf40bc81b65c5faccf1d,participant,hcpib7dulz8ntnec,,,,,Što Miloš je opljačkao banku da kupi?,Miloš je opljačkao banku da kupi kuću.,ai,,,20,,,
,inter-stimulus,canvas.Screen,2_14_5,,,,,,response,1083.100000071514,193194.10000002384,193197.5,193214.2,194297.30000007153,194298,2024-07-30T17:07:56.879Z,194315,0BJtjcDyfZ,incremental,anketa,6645cf40bc81b65c5faccf1d,participant,hcpib7dulz8ntnec,,,mousedown,,Što Miloš je opljačkao banku da kupi?,Miloš je opljačkao banku da kupi kuću.,ai,,,20,,,
,Sequence,flow.Sequence,2_14,,,,,,completion,7071.400000071531,187218.5,187209.2,187225.9,194297.30000007153,194298.20000004768,2024-07-30T17:07:56.879Z,194315,0BJtjcDyfZ,incremental,anketa,6645cf40bc81b65c5faccf1d,participant,hcpib7dulz8ntnec,,,,,Što Miloš je opljačkao banku da kupi?,Miloš je opljačkao banku da kupi kuću.,ai,,,20,,,
,context,canvas.Screen,2_15_0_0,,,,,,response,5301.600000023842,194298.5,194298.3,194315,199616.60000002384,199617,2024-07-30T17:08:02.198Z,199619.4,0BJtjcDyfZ,incremental,anketa,6645cf40bc81b65c5faccf1d,participant,hcpib7dulz8ntnec,,,click,,Tko je jučer susjedu ukrao kobasicu?,Jučer je riđa mačka susjedu ukrala kobasicu.,gf,,,50,KOBASICU; KOBASICA,Što je ukrala mačka?,
,Timer frame,html.Frame,2_15_0,,,,,,,5302.100000023842,194298.20000004768,194298.3,194315,199617.10000002384,199617.10000002384,2024-07-30T17:08:02.198Z,199619.4,0BJtjcDyfZ,incremental,anketa,6645cf40bc81b65c5faccf1d,participant,hcpib7dulz8ntnec,,,,,Tko je jučer susjedu ukrao kobasicu?,Jučer je riđa mačka susjedu ukrala kobasicu.,gf,,,50,KOBASICU; KOBASICA,Što je ukrala mačka?,
,stimulus,canvas.Screen,2_15_1_0,,,,,,response,3525.2000000238477,199617.30000007153,199602.7,199619.4,203144.60000002384,203145,2024-07-30T17:08:05.726Z,203155.7,0BJtjcDyfZ,incremental,anketa,6645cf40bc81b65c5faccf1d,participant,hcpib7dulz8ntnec,,7,click @7,,Tko je jučer susjedu ukrao kobasicu?,Jučer je riđa mačka susjedu ukrala kobasicu.,gf,,,50,KOBASICU; KOBASICA,Što je ukrala mačka?,
,Timer frame,html.Frame,2_15_1,,,,,,,3525.7000000238477,199617.20000004768,199602.7,199619.4,203145.10000002384,203145.20000004768,2024-07-30T17:08:05.726Z,203155.7,0BJtjcDyfZ,incremental,anketa,6645cf40bc81b65c5faccf1d,participant,hcpib7dulz8ntnec,,,,,Tko je jučer susjedu ukrao kobasicu?,Jučer je riđa mačka susjedu ukrala kobasicu.,gf,,,50,KOBASICU; KOBASICA,Što je ukrala mačka?,
,Spremanje,canvas.Screen,2_15_2,,,,,,response,1101.7000000953558,203145.20000004768,203139,203155.7,204257.40000009537,204258.5,2024-07-30T17:08:06.839Z,204273.2,0BJtjcDyfZ,incremental,anketa,6645cf40bc81b65c5faccf1d,participant,hcpib7dulz8ntnec,,,mousedown,,Tko je jučer susjedu ukrao kobasicu?,Jučer je riđa mačka susjedu ukrala kobasicu.,gf,,,50,KOBASICU; KOBASICA,Što je ukrala mačka?,
,Question form,html.Form,2_15_3,,,,,,form submission,9585.600000071514,204258.5,204256.5,204273.2,213858.80000007153,213858.90000009537,2024-07-30T17:08:16.440Z,213864.5,0BJtjcDyfZ,incremental,anketa,6645cf40bc81b65c5faccf1d,participant,hcpib7dulz8ntnec,,,,susjedovu kobasicu,Tko je jučer susjedu ukrao kobasicu?,Jučer je riđa mačka susjedu ukrala kobasicu.,gf,,,50,KOBASICU; KOBASICA,Što je ukrala mačka?,
,Answer indication,canvas.Screen,2_15_4,,,,,,response,1288.7000000476837,213859.40000009537,213847.7,213864.5,215153.20000004768,215154.40000009537,2024-07-30T17:08:17.735Z,215165.5,0BJtjcDyfZ,incremental,anketa,6645cf40bc81b65c5faccf1d,participant,hcpib7dulz8ntnec,,,mousedown,,Tko je jučer susjedu ukrao kobasicu?,Jučer je riđa mačka susjedu ukrala kobasicu.,gf,,,50,KOBASICU; KOBASICA,Što je ukrala mačka?,
,inter-stimulus,canvas.Screen,2_15_5,,,,,,response,1099.8000000715256,215154.40000009537,215148.862,215165.5,216265.30000007153,216266,2024-07-30T17:08:18.847Z,216283.1,0BJtjcDyfZ,incremental,anketa,6645cf40bc81b65c5faccf1d,participant,hcpib7dulz8ntnec,,,mousedown,,Tko je jučer susjedu ukrao kobasicu?,Jučer je riđa mačka susjedu ukrala kobasicu.,gf,,,50,KOBASICU; KOBASICA,Što je ukrala mačka?,
,Sequence,flow.Sequence,2_15,,,,,,completion,21950.300000071526,194298.20000004768,194298.3,194315,216265.30000007153,216266.20000004768,2024-07-30T17:08:18.847Z,216283.1,0BJtjcDyfZ,incremental,anketa,6645cf40bc81b65c5faccf1d,participant,hcpib7dulz8ntnec,,,,,Tko je jučer susjedu ukrao kobasicu?,Jučer je riđa mačka susjedu ukrala kobasicu.,gf,,,50,KOBASICU; KOBASICA,Što je ukrala mačka?,
,context,canvas.Screen,2_16_0_0,,,,,,response,2485.600000047678,216266.40000009537,216266.4,216283.1,218768.70000004768,218769.30000007153,2024-07-30T17:08:21.350Z,,0BJtjcDyfZ,incremental,anketa,6645cf40bc81b65c5faccf1d,participant,hcpib7dulz8ntnec,,,click,,Vidimo plažu daleko od koje smo bili.,Vidimo plažu od koje smo bili daleko.,ai,,,24,,,
,Timer frame,html.Frame,2_16_0,,,,,,,2486.3000000953616,216266.30000007153,216266.4,216283.1,218769.40000009537,218769.40000009537,2024-07-30T17:08:21.350Z,,0BJtjcDyfZ,incremental,anketa,6645cf40bc81b65c5faccf1d,participant,hcpib7dulz8ntnec,,,,,Vidimo plažu daleko od koje smo bili.,Vidimo plažu od koje smo bili daleko.,ai,,,24,,,
,stimulus,canvas.Screen,2_16_1_0,,,,,,response,3118.8000000238535,218769.80000007153,218785.2,218801.8,221920.60000002384,221921.20000004768,2024-07-30T17:08:24.502Z,221937.8,0BJtjcDyfZ,incremental,anketa,6645cf40bc81b65c5faccf1d,participant,hcpib7dulz8ntnec,,5,click @5,,Vidimo plažu daleko od koje smo bili.,Vidimo plažu od koje smo bili daleko.,ai,,,24,,,
,Timer frame,html.Frame,2_16_1,,,,,,,3119.500000071537,218769.5,218785.2,218801.8,221921.30000007153,221921.5,2024-07-30T17:08:24.502Z,221937.8,0BJtjcDyfZ,incremental,anketa,6645cf40bc81b65c5faccf1d,participant,hcpib7dulz8ntnec,,,,,Vidimo plažu daleko od koje smo bili.,Vidimo plažu od koje smo bili daleko.,ai,,,24,,,
,Spremanje,canvas.Screen,2_16_2,,,,,,skipped,,221921.5,,,221921.30000007153,221921.5,2024-07-30T17:08:24.502Z,221937.8,0BJtjcDyfZ,incremental,anketa,6645cf40bc81b65c5faccf1d,participant,hcpib7dulz8ntnec,,,,,Vidimo plažu daleko od koje smo bili.,Vidimo plažu od koje smo bili daleko.,ai,,,24,,,
,Question form,html.Form,2_16_3,,,,,,skipped,,221921.5,,,221921.30000007153,221921.60000002384,2024-07-30T17:08:24.502Z,221937.8,0BJtjcDyfZ,incremental,anketa,6645cf40bc81b65c5faccf1d,participant,hcpib7dulz8ntnec,,,,,Vidimo plažu daleko od koje smo bili.,Vidimo plažu od koje smo bili daleko.,ai,,,24,,,
,Answer indication,canvas.Screen,2_16_4,,,,,,skipped,,221922.10000002384,,,221921.30000007153,221922.10000002384,2024-07-30T17:08:24.503Z,221937.8,0BJtjcDyfZ,incremental,anketa,6645cf40bc81b65c5faccf1d,participant,hcpib7dulz8ntnec,,,,,Vidimo plažu daleko od koje smo bili.,Vidimo plažu od koje smo bili daleko.,ai,,,24,,,
,inter-stimulus,canvas.Screen,2_16_5,,,,,,response,1255.3000000238535,221922.20000004768,221921.1,221937.8,223193.10000002384,223194.10000002384,2024-07-30T17:08:25.775Z,223205.5,0BJtjcDyfZ,incremental,anketa,6645cf40bc81b65c5faccf1d,participant,hcpib7dulz8ntnec,,,mousedown,,Vidimo plažu daleko od koje smo bili.,Vidimo plažu od koje smo bili daleko.,ai,,,24,,,
,Sequence,flow.Sequence,2_16,,,,,,completion,6910.000000023836,216266.30000007153,216266.4,216283.1,223193.10000002384,223194.20000004768,2024-07-30T17:08:25.775Z,223205.5,0BJtjcDyfZ,incremental,anketa,6645cf40bc81b65c5faccf1d,participant,hcpib7dulz8ntnec,,,,,Vidimo plažu daleko od koje smo bili.,Vidimo plažu od koje smo bili daleko.,ai,,,24,,,
,context,canvas.Screen,2_17_0_0,,,,,,response,5891.100000023842,223194.40000009537,223188.8,223205.5,229096.60000002384,229097.10000002384,2024-07-30T17:08:31.678Z,229126.9,0BJtjcDyfZ,incremental,anketa,6645cf40bc81b65c5faccf1d,participant,hcpib7dulz8ntnec,,,click,,Tko je ovo bio jasan slučaj da je zapravo pohlepna osoba??,Ovo je bio jasan slučaj da je on zapravo pohlepna osoba..,cnp,41,40,8,,,
,Timer frame,html.Frame,2_17_0,,,,,,,5891.600000023842,223194.30000007153,223188.8,223205.5,229097.10000002384,229097.10000002384,2024-07-30T17:08:31.678Z,229126.9,0BJtjcDyfZ,incremental,anketa,6645cf40bc81b65c5faccf1d,participant,hcpib7dulz8ntnec,,,,,Tko je ovo bio jasan slučaj da je zapravo pohlepna osoba??,Ovo je bio jasan slučaj da je on zapravo pohlepna osoba..,cnp,41,40,8,,,
,stimulus,canvas.Screen,2_17_1_0,,,,,,response,3761.600000000006,229097.20000004768,229110.3,229126.9,232888.5,232889.10000002384,2024-07-30T17:08:35.470Z,232896.7,0BJtjcDyfZ,incremental,anketa,6645cf40bc81b65c5faccf1d,participant,hcpib7dulz8ntnec,,2,click @2,,Tko je ovo bio jasan slučaj da je zapravo pohlepna osoba??,Ovo je bio jasan slučaj da je on zapravo pohlepna osoba..,cnp,41,40,8,,,
,Timer frame,html.Frame,2_17_1,,,,,,,3762.3000000476895,229097.20000004768,229110.3,229126.9,232889.20000004768,232889.20000004768,2024-07-30T17:08:35.470Z,232896.7,0BJtjcDyfZ,incremental,anketa,6645cf40bc81b65c5faccf1d,participant,hcpib7dulz8ntnec,,,,,Tko je ovo bio jasan slučaj da je zapravo pohlepna osoba??,Ovo je bio jasan slučaj da je on zapravo pohlepna osoba..,cnp,41,40,8,,,
,Spremanje,canvas.Screen,2_17_2,,,,,,skipped,,232889.20000004768,,,232889.20000004768,232889.30000007153,2024-07-30T17:08:35.470Z,232896.7,0BJtjcDyfZ,incremental,anketa,6645cf40bc81b65c5faccf1d,participant,hcpib7dulz8ntnec,,,,,Tko je ovo bio jasan slučaj da je zapravo pohlepna osoba??,Ovo je bio jasan slučaj da je on zapravo pohlepna osoba..,cnp,41,40,8,,,
,Question form,html.Form,2_17_3,,,,,,skipped,,232889.40000009537,,,232889.20000004768,232889.40000009537,2024-07-30T17:08:35.470Z,232896.7,0BJtjcDyfZ,incremental,anketa,6645cf40bc81b65c5faccf1d,participant,hcpib7dulz8ntnec,,,,,Tko je ovo bio jasan slučaj da je zapravo pohlepna osoba??,Ovo je bio jasan slučaj da je on zapravo pohlepna osoba..,cnp,41,40,8,,,
,Answer indication,canvas.Screen,2_17_4,,,,,,skipped,,232889.80000007153,,,232889.20000004768,232889.90000009537,2024-07-30T17:08:35.471Z,232896.7,0BJtjcDyfZ,incremental,anketa,6645cf40bc81b65c5faccf1d,participant,hcpib7dulz8ntnec,,,,,Tko je ovo bio jasan slučaj da je zapravo pohlepna osoba??,Ovo je bio jasan slučaj da je on zapravo pohlepna osoba..,cnp,41,40,8,,,
,inter-stimulus,canvas.Screen,2_17_5,,,,,,response,1120.600000071514,232889.90000009537,232880.1,232896.7,234017.30000007153,234018.20000004768,2024-07-30T17:08:36.599Z,234031,0BJtjcDyfZ,incremental,anketa,6645cf40bc81b65c5faccf1d,participant,hcpib7dulz8ntnec,,,mousedown,,Tko je ovo bio jasan slučaj da je zapravo pohlepna osoba??,Ovo je bio jasan slučaj da je on zapravo pohlepna osoba..,cnp,41,40,8,,,
,Sequence,flow.Sequence,2_17,,,,,,completion,10811.800000071526,223194.30000007153,223188.8,223205.5,234017.30000007153,234018.30000007153,2024-07-30T17:08:36.599Z,234031,0BJtjcDyfZ,incremental,anketa,6645cf40bc81b65c5faccf1d,participant,hcpib7dulz8ntnec,,,,,Tko je ovo bio jasan slučaj da je zapravo pohlepna osoba??,Ovo je bio jasan slučaj da je on zapravo pohlepna osoba..,cnp,41,40,8,,,
,context,canvas.Screen,2_18_0_0,,,,,,response,4033.5,234018.5,234014.3,234031,238064.5,238065,2024-07-30T17:08:40.646Z,238084.3,0BJtjcDyfZ,incremental,anketa,6645cf40bc81b65c5faccf1d,participant,hcpib7dulz8ntnec,,,click,,Za koliko novca nevjerojatno je da je Goran prodao svoj stan??,Ono da je Goran prodao svoj stan za toliki novac nevjerojatno je..,si,31,32,18,,,
,Timer frame,html.Frame,2_18_0,,,,,,,4034.2000000476837,234018.30000007153,234014.3,234031,238065.20000004768,238065.20000004768,2024-07-30T17:08:40.646Z,238084.3,0BJtjcDyfZ,incremental,anketa,6645cf40bc81b65c5faccf1d,participant,hcpib7dulz8ntnec,,,,,Za koliko novca nevjerojatno je da je Goran prodao svoj stan??,Ono da je Goran prodao svoj stan za toliki novac nevjerojatno je..,si,31,32,18,,,
,stimulus,canvas.Screen,2_18_1_0,,,,,,response,3668.4000000476954,238065.40000009537,238067.6,238084.3,241752.70000004768,241753.10000002384,2024-07-30T17:08:44.334Z,241770.6,0BJtjcDyfZ,incremental,anketa,6645cf40bc81b65c5faccf1d,participant,hcpib7dulz8ntnec,,3,click @3,,Za koliko novca nevjerojatno je da je Goran prodao svoj stan??,Ono da je Goran prodao svoj stan za toliki novac nevjerojatno je..,si,31,32,18,,,
,Timer frame,html.Frame,2_18_1,,,,,,,3668.9000000476954,238065.30000007153,238067.6,238084.3,241753.20000004768,241753.30000007153,2024-07-30T17:08:44.334Z,241770.6,0BJtjcDyfZ,incremental,anketa,6645cf40bc81b65c5faccf1d,participant,hcpib7dulz8ntnec,,,,,Za koliko novca nevjerojatno je da je Goran prodao svoj stan??,Ono da je Goran prodao svoj stan za toliki novac nevjerojatno je..,si,31,32,18,,,
,Spremanje,canvas.Screen,2_18_2,,,,,,skipped,,241753.30000007153,,,241753.20000004768,241753.40000009537,2024-07-30T17:08:44.335Z,241770.6,0BJtjcDyfZ,incremental,anketa,6645cf40bc81b65c5faccf1d,participant,hcpib7dulz8ntnec,,,,,Za koliko novca nevjerojatno je da je Goran prodao svoj stan??,Ono da je Goran prodao svoj stan za toliki novac nevjerojatno je..,si,31,32,18,,,
,Question form,html.Form,2_18_3,,,,,,skipped,,241753.40000009537,,,241753.20000004768,241753.40000009537,2024-07-30T17:08:44.335Z,241770.6,0BJtjcDyfZ,incremental,anketa,6645cf40bc81b65c5faccf1d,participant,hcpib7dulz8ntnec,,,,,Za koliko novca nevjerojatno je da je Goran prodao svoj stan??,Ono da je Goran prodao svoj stan za toliki novac nevjerojatno je..,si,31,32,18,,,
,Answer indication,canvas.Screen,2_18_4,,,,,,skipped,,241753.80000007153,,,241753.20000004768,241753.90000009537,2024-07-30T17:08:44.335Z,241770.6,0BJtjcDyfZ,incremental,anketa,6645cf40bc81b65c5faccf1d,participant,hcpib7dulz8ntnec,,,,,Za koliko novca nevjerojatno je da je Goran prodao svoj stan??,Ono da je Goran prodao svoj stan za toliki novac nevjerojatno je..,si,31,32,18,,,
,inter-stimulus,canvas.Screen,2_18_5,,,,,,response,950.7000000715198,241754,241753.966,241770.6,242721.30000007153,242722.30000007153,2024-07-30T17:08:45.304Z,242738.1,0BJtjcDyfZ,incremental,anketa,6645cf40bc81b65c5faccf1d,participant,hcpib7dulz8ntnec,,,mousedown,,Za koliko novca nevjerojatno je da je Goran prodao svoj stan??,Ono da je Goran prodao svoj stan za toliki novac nevjerojatno je..,si,31,32,18,,,
,Sequence,flow.Sequence,2_18,,,,,,completion,8690.300000071526,234018.30000007153,234014.3,234031,242721.30000007153,242722.40000009537,2024-07-30T17:08:45.304Z,242738.1,0BJtjcDyfZ,incremental,anketa,6645cf40bc81b65c5faccf1d,participant,hcpib7dulz8ntnec,,,,,Za koliko novca nevjerojatno je da je Goran prodao svoj stan??,Ono da je Goran prodao svoj stan za toliki novac nevjerojatno je..,si,31,32,18,,,
,context,canvas.Screen,2_19_0_0,,,,,,response,1942.500000023836,242722.60000002384,242721.5,242738.1,244680.60000002384,244681.10000002384,2024-07-30T17:08:47.262Z,244706.4,0BJtjcDyfZ,incremental,anketa,6645cf40bc81b65c5faccf1d,participant,hcpib7dulz8ntnec,,,click,,O čemu je Ivo cijelu večer pričao?,Ivo je cijelu večer pričao o autima.,gf,,,47,,,
,Timer frame,html.Frame,2_19_0,,,,,,,1943.100000047678,242722.60000002384,242721.5,242738.1,244681.20000004768,244681.30000007153,2024-07-30T17:08:47.263Z,244706.4,0BJtjcDyfZ,incremental,anketa,6645cf40bc81b65c5faccf1d,participant,hcpib7dulz8ntnec,,,,,O čemu je Ivo cijelu večer pričao?,Ivo je cijelu večer pričao o autima.,gf,,,47,,,
,stimulus,canvas.Screen,2_19_1_0,,,,,,response,1862.2000000238477,244681.40000009537,244689.8,244706.4,246568.60000002384,246569.10000002384,2024-07-30T17:08:49.150Z,246591.3,0BJtjcDyfZ,incremental,anketa,6645cf40bc81b65c5faccf1d,participant,hcpib7dulz8ntnec,,7,click @7,,O čemu je Ivo cijelu večer pričao?,Ivo je cijelu večer pričao o autima.,gf,,,47,,,
,Timer frame,html.Frame,2_19_1,,,,,,,1862.8000000476895,244681.40000009537,244689.8,244706.4,246569.20000004768,246569.20000004768,2024-07-30T17:08:49.150Z,246591.3,0BJtjcDyfZ,incremental,anketa,6645cf40bc81b65c5faccf1d,participant,hcpib7dulz8ntnec,,,,,O čemu je Ivo cijelu večer pričao?,Ivo je cijelu večer pričao o autima.,gf,,,47,,,
,Spremanje,canvas.Screen,2_19_2,,,,,,skipped,,246569.30000007153,,,246569.20000004768,246569.40000009537,2024-07-30T17:08:49.151Z,246591.3,0BJtjcDyfZ,incremental,anketa,6645cf40bc81b65c5faccf1d,participant,hcpib7dulz8ntnec,,,,,O čemu je Ivo cijelu večer pričao?,Ivo je cijelu večer pričao o autima.,gf,,,47,,,
,Question form,html.Form,2_19_3,,,,,,skipped,,246569.40000009537,,,246569.20000004768,246569.40000009537,2024-07-30T17:08:49.151Z,246591.3,0BJtjcDyfZ,incremental,anketa,6645cf40bc81b65c5faccf1d,participant,hcpib7dulz8ntnec,,,,,O čemu je Ivo cijelu večer pričao?,Ivo je cijelu večer pričao o autima.,gf,,,47,,,
,Answer indication,canvas.Screen,2_19_4,,,,,,skipped,,246569.80000007153,,,246569.20000004768,246569.80000007153,2024-07-30T17:08:49.151Z,246591.3,0BJtjcDyfZ,incremental,anketa,6645cf40bc81b65c5faccf1d,participant,hcpib7dulz8ntnec,,,,,O čemu je Ivo cijelu večer pričao?,Ivo je cijelu večer pričao o autima.,gf,,,47,,,
,inter-stimulus,canvas.Screen,2_19_5,,,,,,response,1306.0000000715372,246569.90000009537,246574.6,246591.3,247897.30000007153,247898.10000002384,2024-07-30T17:08:50.479Z,247909,0BJtjcDyfZ,incremental,anketa,6645cf40bc81b65c5faccf1d,participant,hcpib7dulz8ntnec,,,mousedown,,O čemu je Ivo cijelu večer pričao?,Ivo je cijelu večer pričao o autima.,gf,,,47,,,
,Sequence,flow.Sequence,2_19,,,,,,completion,5159.20000007152,242722.5,242721.5,242738.1,247897.30000007153,247898.30000007153,2024-07-30T17:08:50.480Z,247909,0BJtjcDyfZ,incremental,anketa,6645cf40bc81b65c5faccf1d,participant,hcpib7dulz8ntnec,,,,,O čemu je Ivo cijelu večer pričao?,Ivo je cijelu večer pričao o autima.,gf,,,47,,,
,context,canvas.Screen,2_20_0_0,,,,,,response,2979.600000023842,247898.40000009537,247892.4,247909,250888.60000002384,250889.10000002384,2024-07-30T17:08:53.470Z,250894.8,0BJtjcDyfZ,incremental,anketa,6645cf40bc81b65c5faccf1d,participant,hcpib7dulz8ntnec,,,click,,Što mama hvali kćer koja je u školi dobila?,Mama hvali kćer koja je u školi dobila peticu.,cnp,,,11,,,
,Timer frame,html.Frame,2_20_0,,,,,,,2980.100000023842,247898.40000009537,247892.4,247909,250889.10000002384,250889.10000002384,2024-07-30T17:08:53.470Z,250894.8,0BJtjcDyfZ,incremental,anketa,6645cf40bc81b65c5faccf1d,participant,hcpib7dulz8ntnec,,,,,Što mama hvali kćer koja je u školi dobila?,Mama hvali kćer koja je u školi dobila peticu.,cnp,,,11,,,
,stimulus,canvas.Screen,2_20_1_0,,,,,,response,7569.8000000238535,250889.30000007153,250878.1,250894.8,258464.60000002384,258465,2024-07-30T17:09:01.046Z,258484.4,0BJtjcDyfZ,incremental,anketa,6645cf40bc81b65c5faccf1d,participant,hcpib7dulz8ntnec,,2,click @2,,Što mama hvali kćer koja je u školi dobila?,Mama hvali kćer koja je u školi dobila peticu.,cnp,,,11,,,
,Timer frame,html.Frame,2_20_1,,,,,,,7570.3000000238535,250889.20000004768,250878.1,250894.8,258465.10000002384,258465.10000002384,2024-07-30T17:09:01.046Z,258484.4,0BJtjcDyfZ,incremental,anketa,6645cf40bc81b65c5faccf1d,participant,hcpib7dulz8ntnec,,,,,Što mama hvali kćer koja je u školi dobila?,Mama hvali kćer koja je u školi dobila peticu.,cnp,,,11,,,
,Spremanje,canvas.Screen,2_20_2,,,,,,skipped,,258465.20000004768,,,258465.10000002384,258465.20000004768,2024-07-30T17:09:01.046Z,258484.4,0BJtjcDyfZ,incremental,anketa,6645cf40bc81b65c5faccf1d,participant,hcpib7dulz8ntnec,,,,,Što mama hvali kćer koja je u školi dobila?,Mama hvali kćer koja je u školi dobila peticu.,cnp,,,11,,,
,Question form,html.Form,2_20_3,,,,,,skipped,,258465.20000004768,,,258465.10000002384,258465.30000007153,2024-07-30T17:09:01.047Z,258484.4,0BJtjcDyfZ,incremental,anketa,6645cf40bc81b65c5faccf1d,participant,hcpib7dulz8ntnec,,,,,Što mama hvali kćer koja je u školi dobila?,Mama hvali kćer koja je u školi dobila peticu.,cnp,,,11,,,
,Answer indication,canvas.Screen,2_20_4,,,,,,skipped,,258465.70000004768,,,258465.10000002384,258465.70000004768,2024-07-30T17:09:01.047Z,258484.4,0BJtjcDyfZ,incremental,anketa,6645cf40bc81b65c5faccf1d,participant,hcpib7dulz8ntnec,,,,,Što mama hvali kćer koja je u školi dobila?,Mama hvali kćer koja je u školi dobila peticu.,cnp,,,11,,,
,inter-stimulus,canvas.Screen,2_20_5,,,,,,response,980.7000000238477,258465.80000007153,258467.8,258484.4,259465.10000002384,259466.10000002384,2024-07-30T17:09:02.047Z,259468.5,0BJtjcDyfZ,incremental,anketa,6645cf40bc81b65c5faccf1d,participant,hcpib7dulz8ntnec,,,mousedown,,Što mama hvali kćer koja je u školi dobila?,Mama hvali kćer koja je u školi dobila peticu.,cnp,,,11,,,
,Sequence,flow.Sequence,2_20,,,,,,completion,11556.100000023842,247898.40000009537,247892.4,247909,259465.10000002384,259466.30000007153,2024-07-30T17:09:02.047Z,259468.5,0BJtjcDyfZ,incremental,anketa,6645cf40bc81b65c5faccf1d,participant,hcpib7dulz8ntnec,,,,,Što mama hvali kćer koja je u školi dobila?,Mama hvali kćer koja je u školi dobila peticu.,cnp,,,11,,,
,context,canvas.Screen,2_21_0_0,,,,,,response,2140.100000023842,259466.40000009537,259451.9,259468.5,261608.60000002384,261609.10000002384,2024-07-30T17:09:04.190Z,261620.2,0BJtjcDyfZ,incremental,anketa,6645cf40bc81b65c5faccf1d,participant,hcpib7dulz8ntnec,,,click,,Na što je teško prestati besmisleno bacati novac?,Teško je prestati besmisleno bacati novac na tenisice.,si,,,13,,,
,Timer frame,html.Frame,2_21_0,,,,,,,2140.7000000476837,259466.30000007153,259451.9,259468.5,261609.20000004768,261609.30000007153,2024-07-30T17:09:04.191Z,261620.2,0BJtjcDyfZ,incremental,anketa,6645cf40bc81b65c5faccf1d,participant,hcpib7dulz8ntnec,,,,,Na što je teško prestati besmisleno bacati novac?,Teško je prestati besmisleno bacati novac na tenisice.,si,,,13,,,
,stimulus,canvas.Screen,2_21_1_0,,,,,,response,3316.40000002383,261609.5,261603.6,261620.2,264936.60000002384,264937.10000002384,2024-07-30T17:09:07.518Z,264956.3,0BJtjcDyfZ,incremental,anketa,6645cf40bc81b65c5faccf1d,participant,hcpib7dulz8ntnec,,7,click @7,,Na što je teško prestati besmisleno bacati novac?,Teško je prestati besmisleno bacati novac na tenisice.,si,,,13,,,
,Timer frame,html.Frame,2_21_1,,,,,,,3317.000000047672,261609.30000007153,261603.6,261620.2,264937.2000000477,264937.2000000477,2024-07-30T17:09:07.518Z,264956.3,0BJtjcDyfZ,incremental,anketa,6645cf40bc81b65c5faccf1d,participant,hcpib7dulz8ntnec,,,,,Na što je teško prestati besmisleno bacati novac?,Teško je prestati besmisleno bacati novac na tenisice.,si,,,13,,,
,Spremanje,canvas.Screen,2_21_2,,,,,,skipped,,264937.3000000715,,,264937.2000000477,264937.3000000715,2024-07-30T17:09:07.519Z,264956.3,0BJtjcDyfZ,incremental,anketa,6645cf40bc81b65c5faccf1d,participant,hcpib7dulz8ntnec,,,,,Na što je teško prestati besmisleno bacati novac?,Teško je prestati besmisleno bacati novac na tenisice.,si,,,13,,,
,Question form,html.Form,2_21_3,,,,,,skipped,,264937.40000009537,,,264937.2000000477,264937.40000009537,2024-07-30T17:09:07.519Z,264956.3,0BJtjcDyfZ,incremental,anketa,6645cf40bc81b65c5faccf1d,participant,hcpib7dulz8ntnec,,,,,Na što je teško prestati besmisleno bacati novac?,Teško je prestati besmisleno bacati novac na tenisice.,si,,,13,,,
,Answer indication,canvas.Screen,2_21_4,,,,,,skipped,,264937.8000000715,,,264937.2000000477,264937.8000000715,2024-07-30T17:09:07.519Z,264956.3,0BJtjcDyfZ,incremental,anketa,6645cf40bc81b65c5faccf1d,participant,hcpib7dulz8ntnec,,,,,Na što je teško prestati besmisleno bacati novac?,Teško je prestati besmisleno bacati novac na tenisice.,si,,,13,,,
,inter-stimulus,canvas.Screen,2_21_5,,,,,,response,908.9000000476954,264937.8000000715,264939.7,264956.3,265865.2000000477,265866,2024-07-30T17:09:08.447Z,265873.8,0BJtjcDyfZ,incremental,anketa,6645cf40bc81b65c5faccf1d,participant,hcpib7dulz8ntnec,,,mousedown,,Na što je teško prestati besmisleno bacati novac?,Teško je prestati besmisleno bacati novac na tenisice.,si,,,13,,,
,Sequence,flow.Sequence,2_21,,,,,,completion,6396.700000047684,259466.30000007153,259451.9,259468.5,265865.2000000477,265866.2000000477,2024-07-30T17:09:08.447Z,265873.8,0BJtjcDyfZ,incremental,anketa,6645cf40bc81b65c5faccf1d,participant,hcpib7dulz8ntnec,,,,,Na što je teško prestati besmisleno bacati novac?,Teško je prestati besmisleno bacati novac na tenisice.,si,,,13,,,
,context,canvas.Screen,2_22_0_0,,,,,,response,2670.9000000476954,265866.3000000715,265857.2,265873.8,268544.7000000477,268545.10000002384,2024-07-30T17:09:11.126Z,268559.4,0BJtjcDyfZ,incremental,anketa,6645cf40bc81b65c5faccf1d,participant,hcpib7dulz8ntnec,,,click,,Tko ono da je prodao svoj stan za toliki novac nevjerojatno je??,Ono da je Goran prodao svoj stan za toliki novac nevjerojatno je..,si,30,32,17,,,
,Timer frame,html.Frame,2_22_0,,,,,,,2671.4000000476954,265866.3000000715,265857.2,265873.8,268545.2000000477,268545.3000000715,2024-07-30T17:09:11.127Z,268559.4,0BJtjcDyfZ,incremental,anketa,6645cf40bc81b65c5faccf1d,participant,hcpib7dulz8ntnec,,,,,Tko ono da je prodao svoj stan za toliki novac nevjerojatno je??,Ono da je Goran prodao svoj stan za toliki novac nevjerojatno je..,si,30,32,17,,,
,stimulus,canvas.Screen,2_22_1_0,,,,,,response,4625.200000023819,268545.40000009537,268542.7,268559.4,273184.60000002384,273185,2024-07-30T17:09:15.766Z,273196.5,0BJtjcDyfZ,incremental,anketa,6645cf40bc81b65c5faccf1d,participant,hcpib7dulz8ntnec,,2,click @2,,Tko ono da je prodao svoj stan za toliki novac nevjerojatno je??,Ono da je Goran prodao svoj stan za toliki novac nevjerojatno je..,si,30,32,17,,,
,Timer frame,html.Frame,2_22_1,,,,,,,4625.700000023819,268545.3000000715,268542.7,268559.4,273185.10000002384,273185.2000000477,2024-07-30T17:09:15.766Z,273196.5,0BJtjcDyfZ,incremental,anketa,6645cf40bc81b65c5faccf1d,participant,hcpib7dulz8ntnec,,,,,Tko ono da je prodao svoj stan za toliki novac nevjerojatno je??,Ono da je Goran prodao svoj stan za toliki novac nevjerojatno je..,si,30,32,17,,,
,Spremanje,canvas.Screen,2_22_2,,,,,,skipped,,273185.2000000477,,,273185.10000002384,273185.3000000715,2024-07-30T17:09:15.767Z,273196.5,0BJtjcDyfZ,incremental,anketa,6645cf40bc81b65c5faccf1d,participant,hcpib7dulz8ntnec,,,,,Tko ono da je prodao svoj stan za toliki novac nevjerojatno je??,Ono da je Goran prodao svoj stan za toliki novac nevjerojatno je..,si,30,32,17,,,
,Question form,html.Form,2_22_3,,,,,,skipped,,273185.3000000715,,,273185.10000002384,273185.40000009537,2024-07-30T17:09:15.767Z,273196.5,0BJtjcDyfZ,incremental,anketa,6645cf40bc81b65c5faccf1d,participant,hcpib7dulz8ntnec,,,,,Tko ono da je prodao svoj stan za toliki novac nevjerojatno je??,Ono da je Goran prodao svoj stan za toliki novac nevjerojatno je..,si,30,32,17,,,
,Answer indication,canvas.Screen,2_22_4,,,,,,skipped,,273185.90000009537,,,273185.10000002384,273185.90000009537,2024-07-30T17:09:15.767Z,273196.5,0BJtjcDyfZ,incremental,anketa,6645cf40bc81b65c5faccf1d,participant,hcpib7dulz8ntnec,,,,,Tko ono da je prodao svoj stan za toliki novac nevjerojatno je??,Ono da je Goran prodao svoj stan za toliki novac nevjerojatno je..,si,30,32,17,,,
,inter-stimulus,canvas.Screen,2_22_5,,,,,,response,932.7000000476837,273186,273179.866,273196.5,274129.2000000477,274130.10000002384,2024-07-30T17:09:16.711Z,274130.5,0BJtjcDyfZ,incremental,anketa,6645cf40bc81b65c5faccf1d,participant,hcpib7dulz8ntnec,,,mousedown,,Tko ono da je prodao svoj stan za toliki novac nevjerojatno je??,Ono da je Goran prodao svoj stan za toliki novac nevjerojatno je..,si,30,32,17,,,
,Sequence,flow.Sequence,2_22,,,,,,completion,8255.400000047695,265866.3000000715,265857.2,265873.8,274129.2000000477,274130.3000000715,2024-07-30T17:09:16.711Z,274130.5,0BJtjcDyfZ,incremental,anketa,6645cf40bc81b65c5faccf1d,participant,hcpib7dulz8ntnec,,,,,Tko ono da je prodao svoj stan za toliki novac nevjerojatno je??,Ono da je Goran prodao svoj stan za toliki novac nevjerojatno je..,si,30,32,17,,,
,context,canvas.Screen,2_23_0_0,,,,,,response,1598.2000000476837,274130.40000009537,274130.494,274130.5,275728.7000000477,275729.2000000477,2024-07-30T17:09:18.310Z,275732,0BJtjcDyfZ,incremental,anketa,6645cf40bc81b65c5faccf1d,participant,hcpib7dulz8ntnec,,,click,,Odakle si pješke ići prema Zadru?,Ideš pješke od Splita prema Zadru.,nf,,,44,,,
,Timer frame,html.Frame,2_23_0,,,,,,,1598.8000000715256,274130.3000000715,274130.494,274130.5,275729.3000000715,275729.40000009537,2024-07-30T17:09:18.311Z,275732,0BJtjcDyfZ,incremental,anketa,6645cf40bc81b65c5faccf1d,participant,hcpib7dulz8ntnec,,,,,Odakle si pješke ići prema Zadru?,Ideš pješke od Splita prema Zadru.,nf,,,44,,,
,stimulus,canvas.Screen,2_23_1_0,,,,,,response,3484.600000023842,275729.5,275731.862,275732,279216.60000002384,279217.2000000477,2024-07-30T17:09:21.798Z,279218.1,0BJtjcDyfZ,incremental,anketa,6645cf40bc81b65c5faccf1d,participant,hcpib7dulz8ntnec,,2,click @2,,Odakle si pješke ići prema Zadru?,Ideš pješke od Splita prema Zadru.,nf,,,44,,,
,Timer frame,html.Frame,2_23_1,,,,,,,3485.3000000715256,275729.40000009537,275731.862,275732,279217.3000000715,279217.3000000715,2024-07-30T17:09:21.799Z,279218.1,0BJtjcDyfZ,incremental,anketa,6645cf40bc81b65c5faccf1d,participant,hcpib7dulz8ntnec,,,,,Odakle si pješke ići prema Zadru?,Ideš pješke od Splita prema Zadru.,nf,,,44,,,
,Spremanje,canvas.Screen,2_23_2,,,,,,skipped,,279217.3000000715,,,279217.3000000715,279217.40000009537,2024-07-30T17:09:21.799Z,279218.1,0BJtjcDyfZ,incremental,anketa,6645cf40bc81b65c5faccf1d,participant,hcpib7dulz8ntnec,,,,,Odakle si pješke ići prema Zadru?,Ideš pješke od Splita prema Zadru.,nf,,,44,,,
,Question form,html.Form,2_23_3,,,,,,skipped,,279217.5,,,279217.3000000715,279217.5,2024-07-30T17:09:21.799Z,279218.1,0BJtjcDyfZ,incremental,anketa,6645cf40bc81b65c5faccf1d,participant,hcpib7dulz8ntnec,,,,,Odakle si pješke ići prema Zadru?,Ideš pješke od Splita prema Zadru.,nf,,,44,,,
,Answer indication,canvas.Screen,2_23_4,,,,,,skipped,,279217.90000009537,,,279217.3000000715,279217.90000009537,2024-07-30T17:09:21.799Z,279218.1,0BJtjcDyfZ,incremental,anketa,6645cf40bc81b65c5faccf1d,participant,hcpib7dulz8ntnec,,,,,Odakle si pješke ići prema Zadru?,Ideš pješke od Splita prema Zadru.,nf,,,44,,,
,inter-stimulus,canvas.Screen,2_23_5,,,,,,response,999.3000000953907,279217.90000009537,279218.096,279218.1,280217.40000009537,280218.3000000715,2024-07-30T17:09:22.800Z,280218.9,0BJtjcDyfZ,incremental,anketa,6645cf40bc81b65c5faccf1d,participant,hcpib7dulz8ntnec,,,mousedown,,Odakle si pješke ići prema Zadru?,Ideš pješke od Splita prema Zadru.,nf,,,44,,,
,Sequence,flow.Sequence,2_23,,,,,,completion,6086.900000095367,274130.3000000715,274130.494,274130.5,280217.40000009537,280218.40000009537,2024-07-30T17:09:22.800Z,280218.9,0BJtjcDyfZ,incremental,anketa,6645cf40bc81b65c5faccf1d,participant,hcpib7dulz8ntnec,,,,,Odakle si pješke ići prema Zadru?,Ideš pješke od Splita prema Zadru.,nf,,,44,,,
,context,canvas.Screen,2_24_0_0,,,,,,response,2957.7000000238186,280218.60000002384,280218.864,280218.9,283176.60000002384,283177.10000002384,2024-07-30T17:09:25.758Z,283188.1,0BJtjcDyfZ,incremental,anketa,6645cf40bc81b65c5faccf1d,participant,hcpib7dulz8ntnec,,,click,,Kakva je kraj mene biciklom prošla djevojka?,Kraj mene je biciklom prošla vrlo lijepa djevojka.,ai,,,27,,,
,Timer frame,html.Frame,2_24_0,,,,,,,2958.3000000476604,280218.5,280218.864,280218.9,283177.2000000477,283177.2000000477,2024-07-30T17:09:25.758Z,283188.1,0BJtjcDyfZ,incremental,anketa,6645cf40bc81b65c5faccf1d,participant,hcpib7dulz8ntnec,,,,,Kakva je kraj mene biciklom prošla djevojka?,Kraj mene je biciklom prošla vrlo lijepa djevojka.,ai,,,27,,,
,stimulus,canvas.Screen,2_24_1_0,,,,,,response,4605.100000047707,283177.3000000715,283171.364,283188.1,287793.2000000477,287794,2024-07-30T17:09:30.375Z,287808.5,0BJtjcDyfZ,incremental,anketa,6645cf40bc81b65c5faccf1d,participant,hcpib7dulz8ntnec,,5,click @5,,Kakva je kraj mene biciklom prošla djevojka?,Kraj mene je biciklom prošla vrlo lijepa djevojka.,ai,,,27,,,
,Timer frame,html.Frame,2_24_1,,,,,,,4606.000000023865,283177.3000000715,283171.364,283188.1,287794.10000002384,287794.2000000477,2024-07-30T17:09:30.375Z,287808.5,0BJtjcDyfZ,incremental,anketa,6645cf40bc81b65c5faccf1d,participant,hcpib7dulz8ntnec,,,,,Kakva je kraj mene biciklom prošla djevojka?,Kraj mene je biciklom prošla vrlo lijepa djevojka.,ai,,,27,,,
,Spremanje,canvas.Screen,2_24_2,,,,,,skipped,,287794.3000000715,,,287794.10000002384,287794.40000009537,2024-07-30T17:09:30.376Z,287808.5,0BJtjcDyfZ,incremental,anketa,6645cf40bc81b65c5faccf1d,participant,hcpib7dulz8ntnec,,,,,Kakva je kraj mene biciklom prošla djevojka?,Kraj mene je biciklom prošla vrlo lijepa djevojka.,ai,,,27,,,
,Question form,html.Form,2_24_3,,,,,,skipped,,287794.40000009537,,,287794.10000002384,287794.5,2024-07-30T17:09:30.376Z,287808.5,0BJtjcDyfZ,incremental,anketa,6645cf40bc81b65c5faccf1d,participant,hcpib7dulz8ntnec,,,,,Kakva je kraj mene biciklom prošla djevojka?,Kraj mene je biciklom prošla vrlo lijepa djevojka.,ai,,,27,,,
,Answer indication,canvas.Screen,2_24_4,,,,,,skipped,,287795.2000000477,,,287794.10000002384,287795.2000000477,2024-07-30T17:09:30.377Z,287808.5,0BJtjcDyfZ,incremental,anketa,6645cf40bc81b65c5faccf1d,participant,hcpib7dulz8ntnec,,,,,Kakva je kraj mene biciklom prošla djevojka?,Kraj mene je biciklom prošla vrlo lijepa djevojka.,ai,,,27,,,
,inter-stimulus,canvas.Screen,2_24_5,,,,,,response,1049,287795.3000000715,287791.9,287808.5,288857.5,288858.40000009537,2024-07-30T17:09:31.440Z,288859.4,0BJtjcDyfZ,incremental,anketa,6645cf40bc81b65c5faccf1d,participant,hcpib7dulz8ntnec,,,mousedown,,Kakva je kraj mene biciklom prošla djevojka?,Kraj mene je biciklom prošla vrlo lijepa djevojka.,ai,,,27,,,
,Sequence,flow.Sequence,2_24,,,,,,completion,8638.599999999977,280218.5,280218.864,280218.9,288857.5,288858.60000002384,2024-07-30T17:09:31.440Z,288859.4,0BJtjcDyfZ,incremental,anketa,6645cf40bc81b65c5faccf1d,participant,hcpib7dulz8ntnec,,,,,Kakva je kraj mene biciklom prošla djevojka?,Kraj mene je biciklom prošla vrlo lijepa djevojka.,ai,,,27,,,
,context,canvas.Screen,2_25_0_0,,,,,,response,2213.3000000476604,288858.7000000477,288859.226,288859.4,291072.7000000477,291073.10000002384,2024-07-30T17:09:33.654Z,291094.5,0BJtjcDyfZ,incremental,anketa,6645cf40bc81b65c5faccf1d,participant,hcpib7dulz8ntnec,,,click,,"Što je kupio tata, i spremila je majka?","Tata je kupio meso, a majka je spremila salatu.",csi,,,7,,,
,Timer frame,html.Frame,2_25_0,,,,,,,2213.8000000476604,288858.60000002384,288859.226,288859.4,291073.2000000477,291073.3000000715,2024-07-30T17:09:33.655Z,291094.5,0BJtjcDyfZ,incremental,anketa,6645cf40bc81b65c5faccf1d,participant,hcpib7dulz8ntnec,,,,,"Što je kupio tata, i spremila je majka?","Tata je kupio meso, a majka je spremila salatu.",csi,,,7,,,
,stimulus,canvas.Screen,2_25_1_0,,,,,,response,4258.100000023842,291073.3000000715,291077.9,291094.5,295352.60000002384,295353.2000000477,2024-07-30T17:09:37.934Z,295364.7,0BJtjcDyfZ,incremental,anketa,6645cf40bc81b65c5faccf1d,participant,hcpib7dulz8ntnec,,5,click @5,,"Što je kupio tata, i spremila je majka?","Tata je kupio meso, a majka je spremila salatu.",csi,,,7,,,
,Timer frame,html.Frame,2_25_1,,,,,,,4258.800000071526,291073.3000000715,291077.9,291094.5,295353.3000000715,295353.3000000715,2024-07-30T17:09:37.935Z,295364.7,0BJtjcDyfZ,incremental,anketa,6645cf40bc81b65c5faccf1d,participant,hcpib7dulz8ntnec,,,,,"Što je kupio tata, i spremila je majka?","Tata je kupio meso, a majka je spremila salatu.",csi,,,7,,,
,Spremanje,canvas.Screen,2_25_2,,,,,,skipped,,295353.40000009537,,,295353.3000000715,295353.40000009537,2024-07-30T17:09:37.935Z,295364.7,0BJtjcDyfZ,incremental,anketa,6645cf40bc81b65c5faccf1d,participant,hcpib7dulz8ntnec,,,,,"Što je kupio tata, i spremila je majka?","Tata je kupio meso, a majka je spremila salatu.",csi,,,7,,,
,Question form,html.Form,2_25_3,,,,,,skipped,,295353.5,,,295353.3000000715,295353.5,2024-07-30T17:09:37.935Z,295364.7,0BJtjcDyfZ,incremental,anketa,6645cf40bc81b65c5faccf1d,participant,hcpib7dulz8ntnec,,,,,"Što je kupio tata, i spremila je majka?","Tata je kupio meso, a majka je spremila salatu.",csi,,,7,,,
,Answer indication,canvas.Screen,2_25_4,,,,,,skipped,,295353.8000000715,,,295353.3000000715,295353.90000009537,2024-07-30T17:09:37.935Z,295364.7,0BJtjcDyfZ,incremental,anketa,6645cf40bc81b65c5faccf1d,participant,hcpib7dulz8ntnec,,,,,"Što je kupio tata, i spremila je majka?","Tata je kupio meso, a majka je spremila salatu.",csi,,,7,,,
,inter-stimulus,canvas.Screen,2_25_5,,,,,,response,1060.500000047672,295353.90000009537,295348,295364.7,296425.2000000477,296426.10000002384,2024-07-30T17:09:39.007Z,296432.2,0BJtjcDyfZ,incremental,anketa,6645cf40bc81b65c5faccf1d,participant,hcpib7dulz8ntnec,,,mousedown,,"Što je kupio tata, i spremila je majka?","Tata je kupio meso, a majka je spremila salatu.",csi,,,7,,,
,Sequence,flow.Sequence,2_25,,,,,,completion,7565.80000004766,288858.60000002384,288859.226,288859.4,296425.2000000477,296426.10000002384,2024-07-30T17:09:39.007Z,296432.2,0BJtjcDyfZ,incremental,anketa,6645cf40bc81b65c5faccf1d,participant,hcpib7dulz8ntnec,,,,,"Što je kupio tata, i spremila je majka?","Tata je kupio meso, a majka je spremila salatu.",csi,,,7,,,
,context,canvas.Screen,2_26_0_0,,,,,,response,3384.500000047672,296426.3000000715,296415.6,296432.2,299816.7000000477,299817.2000000477,2024-07-30T17:09:42.398Z,299818.4,0BJtjcDyfZ,incremental,anketa,6645cf40bc81b65c5faccf1d,participant,hcpib7dulz8ntnec,,,click,,Što bismo voljeli da Drago napravi bez prigovora??,Voljeli bismo da Drago opere auto bez prigovora..,si,26,22,16,,,
,Timer frame,html.Frame,2_26_0,,,,,,,3385.100000071514,296426.2000000477,296415.6,296432.2,299817.3000000715,299817.40000009537,2024-07-30T17:09:42.399Z,299818.4,0BJtjcDyfZ,incremental,anketa,6645cf40bc81b65c5faccf1d,participant,hcpib7dulz8ntnec,,,,,Što bismo voljeli da Drago napravi bez prigovora??,Voljeli bismo da Drago opere auto bez prigovora..,si,26,22,16,,,
,stimulus,canvas.Screen,2_26_1_0,,,,,,response,2542.4000000715023,299817.60000002384,299801.63,299818.4,302360.8000000715,302361.3000000715,2024-07-30T17:09:44.942Z,302387.1,0BJtjcDyfZ,incremental,anketa,6645cf40bc81b65c5faccf1d,participant,hcpib7dulz8ntnec,,7,click @7,,Što bismo voljeli da Drago napravi bez prigovora??,Voljeli bismo da Drago opere auto bez prigovora..,si,26,22,16,,,
,Timer frame,html.Frame,2_26_1,,,,,,,2543.000000095344,299817.40000009537,299801.63,299818.4,302361.40000009537,302361.5,2024-07-30T17:09:44.942Z,302387.1,0BJtjcDyfZ,incremental,anketa,6645cf40bc81b65c5faccf1d,participant,hcpib7dulz8ntnec,,,,,Što bismo voljeli da Drago napravi bez prigovora??,Voljeli bismo da Drago opere auto bez prigovora..,si,26,22,16,,,
,Spremanje,canvas.Screen,2_26_2,,,,,,skipped,,302361.5,,,302361.40000009537,302361.60000002384,2024-07-30T17:09:44.942Z,302387.1,0BJtjcDyfZ,incremental,anketa,6645cf40bc81b65c5faccf1d,participant,hcpib7dulz8ntnec,,,,,Što bismo voljeli da Drago napravi bez prigovora??,Voljeli bismo da Drago opere auto bez prigovora..,si,26,22,16,,,
,Question form,html.Form,2_26_3,,,,,,skipped,,302361.60000002384,,,302361.40000009537,302361.7000000477,2024-07-30T17:09:44.942Z,302387.1,0BJtjcDyfZ,incremental,anketa,6645cf40bc81b65c5faccf1d,participant,hcpib7dulz8ntnec,,,,,Što bismo voljeli da Drago napravi bez prigovora??,Voljeli bismo da Drago opere auto bez prigovora..,si,26,22,16,,,
,Answer indication,canvas.Screen,2_26_4,,,,,,skipped,,302362,,,302361.40000009537,302362.10000002384,2024-07-30T17:09:44.943Z,302387.1,0BJtjcDyfZ,incremental,anketa,6645cf40bc81b65c5faccf1d,participant,hcpib7dulz8ntnec,,,,,Što bismo voljeli da Drago napravi bez prigovora??,Voljeli bismo da Drago opere auto bez prigovora..,si,26,22,16,,,
,inter-stimulus,canvas.Screen,2_26_5,,,,,,response,966.100000047707,302362.2000000477,302370.5,302387.1,303353.2000000477,303354.40000009537,2024-07-30T17:09:45.935Z,303371.3,0BJtjcDyfZ,incremental,anketa,6645cf40bc81b65c5faccf1d,participant,hcpib7dulz8ntnec,,,mousedown,,Što bismo voljeli da Drago napravi bez prigovora??,Voljeli bismo da Drago opere auto bez prigovora..,si,26,22,16,,,
,Sequence,flow.Sequence,2_26,,,,,,completion,6921.000000047672,296426.2000000477,296415.6,296432.2,303353.2000000477,303354.8000000715,2024-07-30T17:09:45.936Z,303371.3,0BJtjcDyfZ,incremental,anketa,6645cf40bc81b65c5faccf1d,participant,hcpib7dulz8ntnec,,,,,Što bismo voljeli da Drago napravi bez prigovora??,Voljeli bismo da Drago opere auto bez prigovora..,si,26,22,16,,,
,context,canvas.Screen,2_27_0_0,,,,,,response,4285.400000047695,303355,303354.63,303371.3,307656.7000000477,307657.2000000477,2024-07-30T17:09:50.238Z,307658.2,0BJtjcDyfZ,incremental,anketa,6645cf40bc81b65c5faccf1d,participant,hcpib7dulz8ntnec,,,click,,Od čega je djed otišao u sanatorij odmarati?,Djed je otišao u sanatorij odmarati od gužve i buke..,ai,,26,30,,,
,Timer frame,html.Frame,2_27_0,,,,,,,4286.000000071537,303354.90000009537,303354.63,303371.3,307657.3000000715,307657.40000009537,2024-07-30T17:09:50.238Z,307658.2,0BJtjcDyfZ,incremental,anketa,6645cf40bc81b65c5faccf1d,participant,hcpib7dulz8ntnec,,,,,Od čega je djed otišao u sanatorij odmarati?,Djed je otišao u sanatorij odmarati od gužve i buke..,ai,,26,30,,,
,stimulus,canvas.Screen,2_27_1_0,,,,,,response,5734.40000002383,307657.40000009537,307658.062,307658.2,313392.60000002384,313393.2000000477,2024-07-30T17:09:55.974Z,313396.2,0BJtjcDyfZ,incremental,anketa,6645cf40bc81b65c5faccf1d,participant,hcpib7dulz8ntnec,,5,click @5,,Od čega je djed otišao u sanatorij odmarati?,Djed je otišao u sanatorij odmarati od gužve i buke..,ai,,26,30,,,
,Timer frame,html.Frame,2_27_1,,,,,,,5735.100000071514,307657.40000009537,307658.062,307658.2,313393.3000000715,313393.40000009537,2024-07-30T17:09:55.974Z,313396.2,0BJtjcDyfZ,incremental,anketa,6645cf40bc81b65c5faccf1d,participant,hcpib7dulz8ntnec,,,,,Od čega je djed otišao u sanatorij odmarati?,Djed je otišao u sanatorij odmarati od gužve i buke..,ai,,26,30,,,
,Spremanje,canvas.Screen,2_27_2,,,,,,skipped,,313393.40000009537,,,313393.3000000715,313393.40000009537,2024-07-30T17:09:55.974Z,313396.2,0BJtjcDyfZ,incremental,anketa,6645cf40bc81b65c5faccf1d,participant,hcpib7dulz8ntnec,,,,,Od čega je djed otišao u sanatorij odmarati?,Djed je otišao u sanatorij odmarati od gužve i buke..,ai,,26,30,,,
,Question form,html.Form,2_27_3,,,,,,skipped,,313393.40000009537,,,313393.3000000715,313393.5,2024-07-30T17:09:55.974Z,313396.2,0BJtjcDyfZ,incremental,anketa,6645cf40bc81b65c5faccf1d,participant,hcpib7dulz8ntnec,,,,,Od čega je djed otišao u sanatorij odmarati?,Djed je otišao u sanatorij odmarati od gužve i buke..,ai,,26,30,,,
,Answer indication,canvas.Screen,2_27_4,,,,,,skipped,,313393.90000009537,,,313393.3000000715,313393.90000009537,2024-07-30T17:09:55.975Z,313396.2,0BJtjcDyfZ,incremental,anketa,6645cf40bc81b65c5faccf1d,participant,hcpib7dulz8ntnec,,,,,Od čega je djed otišao u sanatorij odmarati?,Djed je otišao u sanatorij odmarati od gužve i buke..,ai,,26,30,,,
,inter-stimulus,canvas.Screen,2_27_5,,,,,,response,1277.4000000238302,313394,313379.5,313396.2,314673.60000002384,314674.5,2024-07-30T17:09:57.255Z,314680.5,0BJtjcDyfZ,incremental,anketa,6645cf40bc81b65c5faccf1d,participant,hcpib7dulz8ntnec,,,mousedown,,Od čega je djed otišao u sanatorij odmarati?,Djed je otišao u sanatorij odmarati od gužve i buke..,ai,,26,30,,,
,Sequence,flow.Sequence,2_27,,,,,,completion,11302.300000023853,303354.90000009537,303354.63,303371.3,314673.60000002384,314674.7000000477,2024-07-30T17:09:57.255Z,314680.5,0BJtjcDyfZ,incremental,anketa,6645cf40bc81b65c5faccf1d,participant,hcpib7dulz8ntnec,,,,,Od čega je djed otišao u sanatorij odmarati?,Djed je otišao u sanatorij odmarati od gužve i buke..,ai,,26,30,,,
