meta,sender,sender_type,sender_id,age,education,croatian-knowledge,occupation,,ended_on,duration,time_run,time_render,time_show,time_end,time_commit,timestamp,time_switch,openLabId,type,task,project,status,code,confirmationCode,response,response_action,answer_true,stimulus,context,island_type,transfer_s,transfer_c,id,right_answer,question,change_date
"{""labjs_version"":""20.2.4"",""labjs_build"":{""flavor"":""production"",""commit"":""f5b4a49f956347addd546a832a3327688c2c0fef""},""location"":""https://open-lab.online/test/anketa/66aa96f1e3bab725623a4596"",""userAgent"":""Mozilla/5.0 (Linux; Android 10; K) AppleWebKit/537.36 (KHTML, like Gecko) Chrome/127.0.0.0 Mobile Safari/537.36"",""platform"":""Linux armv81"",""language"":""de-DE"",""locale"":""de"",""timeZone"":""Europe/Zagreb"",""timezoneOffset"":-120,""screen_width"":393,""screen_height"":873,""scroll_width"":980,""scroll_height"":1926,""window_innerWidth"":980,""window_innerHeight"":1835,""devicePixelRatio"":2.75}",Demography form,html.Form,0,34,master,mother-tongue,magistra hrvatskog jezika i književnosti,,form submission,29563.100000190734,1255.6000001430511,1264.5,1281.2,30844.300000190735,30846.200000047684,2024-07-31T19:57:03.243Z,30890,2PuMEJFsNx,incremental,anketa,6645cf40bc81b65c5faccf1d,participant,hcpib7dulza9pefs,660317,,,,,,,,,,,,
,context,canvas.Screen,1_0,,,,,,response,6599,30846.900000095367,30839.5,30890,37489,37703.5,2024-07-31T19:57:10.100Z,37783.5,2PuMEJFsNx,incremental,anketa,6645cf40bc81b65c5faccf1d,participant,hcpib7dulza9pefs,,,click,,,,,,,,,,
,stimulus,canvas.Screen,1_1,,,,,,response,11946.700000047684,37704.700000047684,37716.2,37783.5,49730.200000047684,49969,2024-07-31T19:57:22.365Z,50006.9,2PuMEJFsNx,incremental,anketa,6645cf40bc81b65c5faccf1d,participant,hcpib7dulza9pefs,,7,click @7,,,,,,,,,,
,inter-stimulus,canvas.Screen,1_2,,,,,,response,11629.400000190733,49969.90000009537,49973.2,50006.9,61636.300000190735,61845.200000047684,2024-07-31T19:57:34.242Z,61894,2PuMEJFsNx,incremental,anketa,6645cf40bc81b65c5faccf1d,participant,hcpib7dulza9pefs,,,mousedown,,,,,,,,,,
,context,canvas.Screen,1_3,,,,,,response,3748.600000143051,61845.60000014305,61860.4,61894,65642.60000014305,65843.20000004768,2024-07-31T19:57:38.240Z,65895.6,2PuMEJFsNx,incremental,anketa,6645cf40bc81b65c5faccf1d,participant,hcpib7dulza9pefs,,,click,,,,,,,,,,
,stimulus,canvas.Screen,1_4,,,,,,response,6617.600000047678,65844.5,65845.2,65895.6,72513.20000004768,72737.20000004768,2024-07-31T19:57:45.134Z,72805.8,2PuMEJFsNx,incremental,anketa,6645cf40bc81b65c5faccf1d,participant,hcpib7dulza9pefs,,1,click @1,,,,,,,,,,
,inter-stimulus,canvas.Screen,1_5,,,,,,response,9773.500000190732,72738.10000014305,72738.6,72805.8,82579.30000019073,82808.70000004768,2024-07-31T19:57:55.205Z,82860.1,2PuMEJFsNx,incremental,anketa,6645cf40bc81b65c5faccf1d,participant,hcpib7dulza9pefs,,,mousedown,,,,,,,,,,
,context,canvas.Screen,1_6,,,,,,response,4438.200000190729,82810.10000014305,82809.7,82860.1,87298.30000019073,87479.5,2024-07-31T19:57:59.876Z,87551.3,2PuMEJFsNx,incremental,anketa,6645cf40bc81b65c5faccf1d,participant,hcpib7dulza9pefs,,,click,,,,,,,,,,
,stimulus,canvas.Screen,1_7_0,,,,,,response,4904.199999999997,87490,87484.1,87551.3,92455.5,92667.80000019073,2024-07-31T19:58:05.064Z,92713.3,2PuMEJFsNx,incremental,anketa,6645cf40bc81b65c5faccf1d,participant,hcpib7dulza9pefs,,6,click @6,,,,,,,,,,
,Timer frame,html.Frame,1_7,,,,,,,5117.500000190732,87480.80000019073,87484.1,87551.3,92668.80000019073,92670.5,2024-07-31T19:58:05.067Z,92713.3,2PuMEJFsNx,incremental,anketa,6645cf40bc81b65c5faccf1d,participant,hcpib7dulza9pefs,,,,,,,,,,,,,
,Screen,canvas.Screen,1_8,,,,,,response,8120.300000143048,92671,92662.9,92713.3,100833.60000014305,101026.30000019073,2024-07-31T19:58:13.423Z,101052.7,2PuMEJFsNx,incremental,anketa,6645cf40bc81b65c5faccf1d,participant,hcpib7dulza9pefs,,,mousedown,,,,,,,,,,
,Question form,html.Form,1_9,,,,,,form submission,5290.400000143054,101027.30000019073,101035.9,101052.7,106343.10000014305,106344.90000009537,2024-07-31T19:58:18.741Z,106416.3,2PuMEJFsNx,incremental,anketa,6645cf40bc81b65c5faccf1d,participant,hcpib7dulza9pefs,,,,zrele,,,,,,,,,
,Screen,canvas.Screen,1_10,,,,,,response,2054.1000000953645,106354.10000014305,106349,106416.3,108470.40000009537,108700.60000014305,2024-07-31T19:58:21.097Z,108753.4,2PuMEJFsNx,incremental,anketa,6645cf40bc81b65c5faccf1d,participant,hcpib7dulza9pefs,,,mousedown,,,,,,,,,,
,inter-stimulus,canvas.Screen,1_11,,,,,,response,52940.600000000006,108701.60000014305,108702.9,108753.4,161694,161928.10000014305,2024-07-31T19:59:14.325Z,161984.5,2PuMEJFsNx,incremental,anketa,6645cf40bc81b65c5faccf1d,participant,hcpib7dulza9pefs,,,mousedown,,,,,,,,,,
,First stimuli,flow.Sequence,1,,,,,,completion,130804,30846.800000190735,30839.5,30890,161694,161936.30000019073,2024-07-31T19:59:14.333Z,161984.5,2PuMEJFsNx,incremental,anketa,6645cf40bc81b65c5faccf1d,participant,hcpib7dulza9pefs,,,,,,,,,,,,,
,context,canvas.Screen,2_0_0_0,,,,,,response,4420.200000047684,161937.5,161934.1,161984.5,166404.70000004768,166598.90000009537,2024-07-31T19:59:18.995Z,166642.2,2PuMEJFsNx,incremental,anketa,6645cf40bc81b65c5faccf1d,participant,hcpib7dulza9pefs,,,click,,Što Miloš je opljačkao banku da kupi?,Miloš je opljačkao banku da kupi kuću.,ai,,,20,,,
,Timer frame,html.Frame,2_0_0,,,,,,,4615.800000190735,161937.10000014305,161934.1,161984.5,166600.30000019073,166604,2024-07-31T19:59:19.001Z,166642.2,2PuMEJFsNx,incremental,anketa,6645cf40bc81b65c5faccf1d,participant,hcpib7dulza9pefs,,,,,Što Miloš je opljačkao banku da kupi?,Miloš je opljačkao banku da kupi kuću.,ai,,,20,,,
,stimulus,canvas.Screen,2_0_1_0,,,,,,response,6586.299999999988,166605.80000019073,166608.6,166642.2,173228.5,173473.20000004768,2024-07-31T19:59:25.870Z,173535.7,2PuMEJFsNx,incremental,anketa,6645cf40bc81b65c5faccf1d,participant,hcpib7dulza9pefs,,4,click @4,,Što Miloš je opljačkao banku da kupi?,Miloš je opljačkao banku da kupi kuću.,ai,,,20,,,
,Timer frame,html.Frame,2_0_1,,,,,,,6831.799999999988,166605,166608.6,166642.2,173474,173476.60000014305,2024-07-31T19:59:25.873Z,173535.7,2PuMEJFsNx,incremental,anketa,6645cf40bc81b65c5faccf1d,participant,hcpib7dulza9pefs,,,,,Što Miloš je opljačkao banku da kupi?,Miloš je opljačkao banku da kupi kuću.,ai,,,20,,,
,Spremanje,canvas.Screen,2_0_2,,,,,,skipped,,173477.20000004768,,,173474,173478.10000014305,2024-07-31T19:59:25.875Z,173535.7,2PuMEJFsNx,incremental,anketa,6645cf40bc81b65c5faccf1d,participant,hcpib7dulza9pefs,,,,,Što Miloš je opljačkao banku da kupi?,Miloš je opljačkao banku da kupi kuću.,ai,,,20,,,
,Question form,html.Form,2_0_3,,,,,,skipped,,173478.80000019073,,,173474,173479.5,2024-07-31T19:59:25.876Z,173535.7,2PuMEJFsNx,incremental,anketa,6645cf40bc81b65c5faccf1d,participant,hcpib7dulza9pefs,,,,,Što Miloš je opljačkao banku da kupi?,Miloš je opljačkao banku da kupi kuću.,ai,,,20,,,
,Answer indication,canvas.Screen,2_0_4,,,,,,skipped,,173487.20000004768,,,173474,173488.30000019073,2024-07-31T19:59:25.885Z,173535.7,2PuMEJFsNx,incremental,anketa,6645cf40bc81b65c5faccf1d,participant,hcpib7dulza9pefs,,,,,Što Miloš je opljačkao banku da kupi?,Miloš je opljačkao banku da kupi kuću.,ai,,,20,,,
,inter-stimulus,canvas.Screen,2_0_5,,,,,,response,1078.000000047672,173488.60000014305,173468.5,173535.7,174613.70000004768,174857.5,2024-07-31T19:59:27.254Z,174897.4,2PuMEJFsNx,incremental,anketa,6645cf40bc81b65c5faccf1d,participant,hcpib7dulza9pefs,,,mousedown,,Što Miloš je opljačkao banku da kupi?,Miloš je opljačkao banku da kupi kuću.,ai,,,20,,,
,Sequence,flow.Sequence,2_0,,,,,,completion,12629.200000047684,161937,161934.1,161984.5,174613.70000004768,174859.5,2024-07-31T19:59:27.256Z,174897.4,2PuMEJFsNx,incremental,anketa,6645cf40bc81b65c5faccf1d,participant,hcpib7dulza9pefs,,,,,Što Miloš je opljačkao banku da kupi?,Miloš je opljačkao banku da kupi kuću.,ai,,,20,,,
,context,canvas.Screen,2_1_0_0,,,,,,response,4265.8000000476895,174861.60000014305,174863.8,174897.4,179163.20000004768,179381.5,2024-07-31T19:59:31.778Z,179454.1,2PuMEJFsNx,incremental,anketa,6645cf40bc81b65c5faccf1d,participant,hcpib7dulza9pefs,,,click,,Od čega je djed otišao u sanatorij odmarati?,Djed je otišao u sanatorij odmarati od gužve i buke..,ai,,26,30,,,
,Timer frame,html.Frame,2_1_0,,,,,,,4485.100000000006,174860.80000019073,174863.8,174897.4,179382.5,179383.30000019073,2024-07-31T19:59:31.780Z,179454.1,2PuMEJFsNx,incremental,anketa,6645cf40bc81b65c5faccf1d,participant,hcpib7dulza9pefs,,,,,Od čega je djed otišao u sanatorij odmarati?,Djed je otišao u sanatorij odmarati od gužve i buke..,ai,,26,30,,,
,stimulus,canvas.Screen,2_1_1_0,,,,,,response,2843.0000001430453,179384.80000019073,179386.8,179454.1,182297.10000014305,182512.5,2024-07-31T19:59:34.909Z,182564.6,2PuMEJFsNx,incremental,anketa,6645cf40bc81b65c5faccf1d,participant,hcpib7dulza9pefs,,6,click @6,,Od čega je djed otišao u sanatorij odmarati?,Djed je otišao u sanatorij odmarati od gužve i buke..,ai,,26,30,,,
,Timer frame,html.Frame,2_1_1,,,,,,,3059.600000047678,179384,179386.8,179454.1,182513.70000004768,182514.70000004768,2024-07-31T19:59:34.911Z,182564.6,2PuMEJFsNx,incremental,anketa,6645cf40bc81b65c5faccf1d,participant,hcpib7dulza9pefs,,,,,Od čega je djed otišao u sanatorij odmarati?,Djed je otišao u sanatorij odmarati od gužve i buke..,ai,,26,30,,,
,Spremanje,canvas.Screen,2_1_2,,,,,,skipped,,182515.60000014305,,,182513.70000004768,182516.70000004768,2024-07-31T19:59:34.913Z,182564.6,2PuMEJFsNx,incremental,anketa,6645cf40bc81b65c5faccf1d,participant,hcpib7dulza9pefs,,,,,Od čega je djed otišao u sanatorij odmarati?,Djed je otišao u sanatorij odmarati od gužve i buke..,ai,,26,30,,,
,Question form,html.Form,2_1_3,,,,,,skipped,,182517.5,,,182513.70000004768,182518.30000019073,2024-07-31T19:59:34.915Z,182564.6,2PuMEJFsNx,incremental,anketa,6645cf40bc81b65c5faccf1d,participant,hcpib7dulza9pefs,,,,,Od čega je djed otišao u sanatorij odmarati?,Djed je otišao u sanatorij odmarati od gužve i buke..,ai,,26,30,,,
,Answer indication,canvas.Screen,2_1_4,,,,,,skipped,,182528.30000019073,,,182513.70000004768,182529.10000014305,2024-07-31T19:59:34.926Z,182564.6,2PuMEJFsNx,incremental,anketa,6645cf40bc81b65c5faccf1d,participant,hcpib7dulza9pefs,,,,,Od čega je djed otišao u sanatorij odmarati?,Djed je otišao u sanatorij odmarati od gužve i buke..,ai,,26,30,,,
,inter-stimulus,canvas.Screen,2_1_5,,,,,,response,2430.0000001430453,182529.60000014305,182514.1,182564.6,184994.60000014305,185237.40000009537,2024-07-31T19:59:37.634Z,185288.3,2PuMEJFsNx,incremental,anketa,6645cf40bc81b65c5faccf1d,participant,hcpib7dulza9pefs,,,mousedown,,Od čega je djed otišao u sanatorij odmarati?,Djed je otišao u sanatorij odmarati od gužve i buke..,ai,,26,30,,,
,Sequence,flow.Sequence,2_1,,,,,,completion,10097.200000143057,174860.5,174863.8,174897.4,184994.60000014305,185239.10000014305,2024-07-31T19:59:37.636Z,185288.3,2PuMEJFsNx,incremental,anketa,6645cf40bc81b65c5faccf1d,participant,hcpib7dulza9pefs,,,,,Od čega je djed otišao u sanatorij odmarati?,Djed je otišao u sanatorij odmarati od gužve i buke..,ai,,26,30,,,
,context,canvas.Screen,2_2_0_0,,,,,,response,3134.2000000000116,185241,185237.8,185288.3,188422.5,188648.90000009537,2024-07-31T19:59:41.045Z,188701.4,2PuMEJFsNx,incremental,anketa,6645cf40bc81b65c5faccf1d,participant,hcpib7dulza9pefs,,,click,,Na što je teško prestati besmisleno bacati novac?,Teško je prestati besmisleno bacati novac na tenisice.,si,,,13,,,
,Timer frame,html.Frame,2_2_0,,,,,,,3361.800000143063,185240.30000019073,185237.8,185288.3,188650.10000014305,188651,2024-07-31T19:59:41.047Z,188701.4,2PuMEJFsNx,incremental,anketa,6645cf40bc81b65c5faccf1d,participant,hcpib7dulza9pefs,,,,,Na što je teško prestati besmisleno bacati novac?,Teško je prestati besmisleno bacati novac na tenisice.,si,,,13,,,
,stimulus,canvas.Screen,2_2_1_0,,,,,,response,5180.500000095373,188652.80000019073,188650.9,188701.4,193881.90000009537,194065.70000004768,2024-07-31T19:59:46.462Z,194132,2PuMEJFsNx,incremental,anketa,6645cf40bc81b65c5faccf1d,participant,hcpib7dulza9pefs,,7,click @7,,Na što je teško prestati besmisleno bacati novac?,Teško je prestati besmisleno bacati novac na tenisice.,si,,,13,,,
,Timer frame,html.Frame,2_2_1,,,,,,,5365.200000143057,188651.80000019073,188650.9,188701.4,194066.60000014305,194067.30000019073,2024-07-31T19:59:46.464Z,194132,2PuMEJFsNx,incremental,anketa,6645cf40bc81b65c5faccf1d,participant,hcpib7dulza9pefs,,,,,Na što je teško prestati besmisleno bacati novac?,Teško je prestati besmisleno bacati novac na tenisice.,si,,,13,,,
,Spremanje,canvas.Screen,2_2_2,,,,,,skipped,,194067.90000009537,,,194066.60000014305,194068.60000014305,2024-07-31T19:59:46.465Z,194132,2PuMEJFsNx,incremental,anketa,6645cf40bc81b65c5faccf1d,participant,hcpib7dulza9pefs,,,,,Na što je teško prestati besmisleno bacati novac?,Teško je prestati besmisleno bacati novac na tenisice.,si,,,13,,,
,Question form,html.Form,2_2_3,,,,,,skipped,,194069.40000009537,,,194066.60000014305,194070.10000014305,2024-07-31T19:59:46.467Z,194132,2PuMEJFsNx,incremental,anketa,6645cf40bc81b65c5faccf1d,participant,hcpib7dulza9pefs,,,,,Na što je teško prestati besmisleno bacati novac?,Teško je prestati besmisleno bacati novac na tenisice.,si,,,13,,,
,Answer indication,canvas.Screen,2_2_4,,,,,,skipped,,194076.40000009537,,,194066.60000014305,194077.10000014305,2024-07-31T19:59:46.474Z,194132,2PuMEJFsNx,incremental,anketa,6645cf40bc81b65c5faccf1d,participant,hcpib7dulza9pefs,,,,,Na što je teško prestati besmisleno bacati novac?,Teško je prestati besmisleno bacati novac na tenisice.,si,,,13,,,
,inter-stimulus,canvas.Screen,2_2_5,,,,,,response,3591.2000000476837,194077.70000004768,194064.8,194132,197723.20000004768,197940.30000019073,2024-07-31T19:59:50.337Z,197982.6,2PuMEJFsNx,incremental,anketa,6645cf40bc81b65c5faccf1d,participant,hcpib7dulza9pefs,,,mousedown,,Na što je teško prestati besmisleno bacati novac?,Teško je prestati besmisleno bacati novac na tenisice.,si,,,13,,,
,Sequence,flow.Sequence,2_2,,,,,,completion,12434.900000047695,185239.90000009537,185237.8,185288.3,197723.20000004768,197942,2024-07-31T19:59:50.339Z,197982.6,2PuMEJFsNx,incremental,anketa,6645cf40bc81b65c5faccf1d,participant,hcpib7dulza9pefs,,,,,Na što je teško prestati besmisleno bacati novac?,Teško je prestati besmisleno bacati novac na tenisice.,si,,,13,,,
,context,canvas.Screen,2_3_0_0,,,,,,response,4412.600000047678,197944.10000014305,197949.1,197982.6,202395.20000004768,202588.30000019073,2024-07-31T19:59:54.985Z,202640,2PuMEJFsNx,incremental,anketa,6645cf40bc81b65c5faccf1d,participant,hcpib7dulza9pefs,,,click,,Sanjam dvorac iz kojeg se čuje glasan plač daleko..,Sanjam dvorac daleko iz kojeg se čuje glasan plač..,ai,30,37,26,,,
,Timer frame,html.Frame,2_3_0,,,,,,,4606.800000095362,197943.10000014305,197949.1,197982.6,202589.40000009537,202590.20000004768,2024-07-31T19:59:54.987Z,202640,2PuMEJFsNx,incremental,anketa,6645cf40bc81b65c5faccf1d,participant,hcpib7dulza9pefs,,,,,Sanjam dvorac iz kojeg se čuje glasan plač daleko..,Sanjam dvorac daleko iz kojeg se čuje glasan plač..,ai,30,37,26,,,
,stimulus,canvas.Screen,2_3_1_0,,,,,,response,4994.800000190735,202591.80000019073,202589.6,202640,207634.80000019073,207892.70000004768,2024-07-31T20:00:00.289Z,207936,2PuMEJFsNx,incremental,anketa,6645cf40bc81b65c5faccf1d,participant,hcpib7dulza9pefs,,7,click @7,,Sanjam dvorac iz kojeg se čuje glasan plač daleko..,Sanjam dvorac daleko iz kojeg se čuje glasan plač..,ai,30,37,26,,,
,Timer frame,html.Frame,2_3_1,,,,,,,5253.100000143051,202590.90000009537,202589.6,202640,207893.10000014305,207893.40000009537,2024-07-31T20:00:00.290Z,207936,2PuMEJFsNx,incremental,anketa,6645cf40bc81b65c5faccf1d,participant,hcpib7dulza9pefs,,,,,Sanjam dvorac iz kojeg se čuje glasan plač daleko..,Sanjam dvorac daleko iz kojeg se čuje glasan plač..,ai,30,37,26,,,
,Spremanje,canvas.Screen,2_3_2,,,,,,skipped,,207893.60000014305,,,207893.10000014305,207893.80000019073,2024-07-31T20:00:00.290Z,207936,2PuMEJFsNx,incremental,anketa,6645cf40bc81b65c5faccf1d,participant,hcpib7dulza9pefs,,,,,Sanjam dvorac iz kojeg se čuje glasan plač daleko..,Sanjam dvorac daleko iz kojeg se čuje glasan plač..,ai,30,37,26,,,
,Question form,html.Form,2_3_3,,,,,,skipped,,207894,,,207893.10000014305,207894.20000004768,2024-07-31T20:00:00.291Z,207936,2PuMEJFsNx,incremental,anketa,6645cf40bc81b65c5faccf1d,participant,hcpib7dulza9pefs,,,,,Sanjam dvorac iz kojeg se čuje glasan plač daleko..,Sanjam dvorac daleko iz kojeg se čuje glasan plač..,ai,30,37,26,,,
,Answer indication,canvas.Screen,2_3_4,,,,,,skipped,,207896.90000009537,,,207893.10000014305,207897.20000004768,2024-07-31T20:00:00.294Z,207936,2PuMEJFsNx,incremental,anketa,6645cf40bc81b65c5faccf1d,participant,hcpib7dulza9pefs,,,,,Sanjam dvorac iz kojeg se čuje glasan plač daleko..,Sanjam dvorac daleko iz kojeg se čuje glasan plač..,ai,30,37,26,,,
,inter-stimulus,canvas.Screen,2_3_5,,,,,,response,4021.600000143051,207897.5,207902.4,207936,211957.60000014305,212181.30000019073,2024-07-31T20:00:04.578Z,212223.6,2PuMEJFsNx,incremental,anketa,6645cf40bc81b65c5faccf1d,participant,hcpib7dulza9pefs,,,mousedown,,Sanjam dvorac iz kojeg se čuje glasan plač daleko..,Sanjam dvorac daleko iz kojeg se čuje glasan plač..,ai,30,37,26,,,
,Sequence,flow.Sequence,2_3,,,,,,completion,13975.000000143045,197942.80000019073,197949.1,197982.6,211957.60000014305,212183,2024-07-31T20:00:04.579Z,212223.6,2PuMEJFsNx,incremental,anketa,6645cf40bc81b65c5faccf1d,participant,hcpib7dulza9pefs,,,,,Sanjam dvorac iz kojeg se čuje glasan plač daleko..,Sanjam dvorac daleko iz kojeg se čuje glasan plač..,ai,30,37,26,,,
,context,canvas.Screen,2_4_0_0,,,,,,response,2419.700000190729,212184.80000019073,212190,212223.6,214643.30000019073,214863,2024-07-31T20:00:07.260Z,214897,2PuMEJFsNx,incremental,anketa,6645cf40bc81b65c5faccf1d,participant,hcpib7dulza9pefs,,,click,,Kakav sam vidio barku u oceanu?,Vidio sam bijelu barku u oceanu.,nf,,,41,,,2305
,Timer frame,html.Frame,2_4_0,,,,,,,2640.700000190729,212184.10000014305,212190,212223.6,214864.30000019073,214865.5,2024-07-31T20:00:07.262Z,214897,2PuMEJFsNx,incremental,anketa,6645cf40bc81b65c5faccf1d,participant,hcpib7dulza9pefs,,,,,Kakav sam vidio barku u oceanu?,Vidio sam bijelu barku u oceanu.,nf,,,41,,,2305
,stimulus,canvas.Screen,2_4_1_0,,,,,,response,4532.700000047684,214867.40000009537,214846.6,214897,219429.70000004768,219649.60000014305,2024-07-31T20:00:12.046Z,219705.6,2PuMEJFsNx,incremental,anketa,6645cf40bc81b65c5faccf1d,participant,hcpib7dulza9pefs,,4,click @4,,Kakav sam vidio barku u oceanu?,Vidio sam bijelu barku u oceanu.,nf,,,41,,,2305
,Timer frame,html.Frame,2_4_1,,,,,,,4752.900000095367,214866.40000009537,214846.6,214897,219649.90000009537,219650.10000014305,2024-07-31T20:00:12.047Z,219705.6,2PuMEJFsNx,incremental,anketa,6645cf40bc81b65c5faccf1d,participant,hcpib7dulza9pefs,,,,,Kakav sam vidio barku u oceanu?,Vidio sam bijelu barku u oceanu.,nf,,,41,,,2305
,Spremanje,canvas.Screen,2_4_2,,,,,,skipped,,219650.30000019073,,,219649.90000009537,219650.5,2024-07-31T20:00:12.047Z,219705.6,2PuMEJFsNx,incremental,anketa,6645cf40bc81b65c5faccf1d,participant,hcpib7dulza9pefs,,,,,Kakav sam vidio barku u oceanu?,Vidio sam bijelu barku u oceanu.,nf,,,41,,,2305
,Question form,html.Form,2_4_3,,,,,,skipped,,219650.70000004768,,,219649.90000009537,219650.90000009537,2024-07-31T20:00:12.047Z,219705.6,2PuMEJFsNx,incremental,anketa,6645cf40bc81b65c5faccf1d,participant,hcpib7dulza9pefs,,,,,Kakav sam vidio barku u oceanu?,Vidio sam bijelu barku u oceanu.,nf,,,41,,,2305
,Answer indication,canvas.Screen,2_4_4,,,,,,skipped,,219655.10000014305,,,219649.90000009537,219655.80000019073,2024-07-31T20:00:12.052Z,219705.6,2PuMEJFsNx,incremental,anketa,6645cf40bc81b65c5faccf1d,participant,hcpib7dulza9pefs,,,,,Kakav sam vidio barku u oceanu?,Vidio sam bijelu barku u oceanu.,nf,,,41,,,2305
,inter-stimulus,canvas.Screen,2_4_5,,,,,,response,899.6000000476779,219656.40000009537,219638.4,219705.6,220605.20000004768,220834.90000009537,2024-07-31T20:00:13.231Z,220882.4,2PuMEJFsNx,incremental,anketa,6645cf40bc81b65c5faccf1d,participant,hcpib7dulza9pefs,,,mousedown,,Kakav sam vidio barku u oceanu?,Vidio sam bijelu barku u oceanu.,nf,,,41,,,2305
,Sequence,flow.Sequence,2_4,,,,,,completion,8381.600000047678,212183.70000004768,212190,212223.6,220605.20000004768,220836.5,2024-07-31T20:00:13.233Z,220882.4,2PuMEJFsNx,incremental,anketa,6645cf40bc81b65c5faccf1d,participant,hcpib7dulza9pefs,,,,,Kakav sam vidio barku u oceanu?,Vidio sam bijelu barku u oceanu.,nf,,,41,,,2305
,context,canvas.Screen,2_5_0_0,,,,,,response,1642.200000143057,220837.90000009537,220848.8,220882.4,222524.60000014305,222737.70000004768,2024-07-31T20:00:15.134Z,222801.6,2PuMEJFsNx,incremental,anketa,6645cf40bc81b65c5faccf1d,participant,hcpib7dulza9pefs,,,click,,Što je kupio i majicu?,On je kupio tenisice I majicu.,csi,0,0,0,,,2305
,Timer frame,html.Frame,2_5_0,,,,,,,1856.0000000953733,220837.5,220848.8,220882.4,222738.40000009537,222739,2024-07-31T20:00:15.135Z,222801.6,2PuMEJFsNx,incremental,anketa,6645cf40bc81b65c5faccf1d,participant,hcpib7dulza9pefs,,,,,Što je kupio i majicu?,On je kupio tenisice I majicu.,csi,0,0,0,,,2305
,stimulus,canvas.Screen,2_5_1_0,,,,,,response,3975.600000047678,222740.40000009537,222734.3,222801.6,226777.20000004768,227023.40000009537,2024-07-31T20:00:19.420Z,227086.7,2PuMEJFsNx,incremental,anketa,6645cf40bc81b65c5faccf1d,participant,hcpib7dulza9pefs,,4,click @4,,Što je kupio i majicu?,On je kupio tenisice I majicu.,csi,0,0,0,,,2305
,Timer frame,html.Frame,2_5_1,,,,,,,4223.000000143045,222739.5,222734.3,222801.6,227024.60000014305,227025.5,2024-07-31T20:00:19.422Z,227086.7,2PuMEJFsNx,incremental,anketa,6645cf40bc81b65c5faccf1d,participant,hcpib7dulza9pefs,,,,,Što je kupio i majicu?,On je kupio tenisice I majicu.,csi,0,0,0,,,2305
,Spremanje,canvas.Screen,2_5_2,,,,,,skipped,,227026.30000019073,,,227024.60000014305,227026.90000009537,2024-07-31T20:00:19.423Z,227086.7,2PuMEJFsNx,incremental,anketa,6645cf40bc81b65c5faccf1d,participant,hcpib7dulza9pefs,,,,,Što je kupio i majicu?,On je kupio tenisice I majicu.,csi,0,0,0,,,2305
,Question form,html.Form,2_5_3,,,,,,skipped,,227027.40000009537,,,227024.60000014305,227028.30000019073,2024-07-31T20:00:19.425Z,227086.7,2PuMEJFsNx,incremental,anketa,6645cf40bc81b65c5faccf1d,participant,hcpib7dulza9pefs,,,,,Što je kupio i majicu?,On je kupio tenisice I majicu.,csi,0,0,0,,,2305
,Answer indication,canvas.Screen,2_5_4,,,,,,skipped,,227034.90000009537,,,227024.60000014305,227035.70000004768,2024-07-31T20:00:19.432Z,227086.7,2PuMEJFsNx,incremental,anketa,6645cf40bc81b65c5faccf1d,participant,hcpib7dulza9pefs,,,,,Što je kupio i majicu?,On je kupio tenisice I majicu.,csi,0,0,0,,,2305
,inter-stimulus,canvas.Screen,2_5_5,,,,,,response,669.0000000476721,227036.5,227019.4,227086.7,227755.70000004768,227989.20000004768,2024-07-31T20:00:20.386Z,228028.4,2PuMEJFsNx,incremental,anketa,6645cf40bc81b65c5faccf1d,participant,hcpib7dulza9pefs,,,mousedown,,Što je kupio i majicu?,On je kupio tenisice I majicu.,csi,0,0,0,,,2305
,Sequence,flow.Sequence,2_5,,,,,,completion,6873.3000000476895,220837.20000004768,220848.8,220882.4,227755.70000004768,227989.80000019073,2024-07-31T20:00:20.386Z,228028.4,2PuMEJFsNx,incremental,anketa,6645cf40bc81b65c5faccf1d,participant,hcpib7dulza9pefs,,,,,Što je kupio i majicu?,On je kupio tenisice I majicu.,csi,0,0,0,,,2305
,context,canvas.Screen,2_6_0_0,,,,,,response,3077.3000000476895,227990.40000009537,227994.7,228028.4,231105.70000004768,231346.30000019073,2024-07-31T20:00:23.743Z,231391,2PuMEJFsNx,incremental,anketa,6645cf40bc81b65c5faccf1d,participant,hcpib7dulza9pefs,,,click,,Za koliko novca nevjerojatno je da je Goran prodao svoj stan??,Ono da je Goran prodao svoj stan za toliki novac nevjerojatno je..,si,31,32,18,,,
,Timer frame,html.Frame,2_6_0,,,,,,,3318.9000001907407,227990.20000004768,227994.7,228028.4,231347.30000019073,231348.10000014305,2024-07-31T20:00:23.745Z,231391,2PuMEJFsNx,incremental,anketa,6645cf40bc81b65c5faccf1d,participant,hcpib7dulza9pefs,,,,,Za koliko novca nevjerojatno je da je Goran prodao svoj stan??,Ono da je Goran prodao svoj stan za toliki novac nevjerojatno je..,si,31,32,18,,,
,stimulus,canvas.Screen,2_6_1_0,,,,,,response,3018.5,231349.70000004768,231340.6,231391,234409.5,234666,2024-07-31T20:00:27.063Z,234737,2PuMEJFsNx,incremental,anketa,6645cf40bc81b65c5faccf1d,participant,hcpib7dulza9pefs,,1,click @1,,Za koliko novca nevjerojatno je da je Goran prodao svoj stan??,Ono da je Goran prodao svoj stan za toliki novac nevjerojatno je..,si,31,32,18,,,
,Timer frame,html.Frame,2_6_1,,,,,,,3275.800000190735,231348.90000009537,231340.6,231391,234666.80000019073,234667.60000014305,2024-07-31T20:00:27.064Z,234737,2PuMEJFsNx,incremental,anketa,6645cf40bc81b65c5faccf1d,participant,hcpib7dulza9pefs,,,,,Za koliko novca nevjerojatno je da je Goran prodao svoj stan??,Ono da je Goran prodao svoj stan za toliki novac nevjerojatno je..,si,31,32,18,,,
,Spremanje,canvas.Screen,2_6_2,,,,,,skipped,,234668.5,,,234666.80000019073,234669.20000004768,2024-07-31T20:00:27.066Z,234737,2PuMEJFsNx,incremental,anketa,6645cf40bc81b65c5faccf1d,participant,hcpib7dulza9pefs,,,,,Za koliko novca nevjerojatno je da je Goran prodao svoj stan??,Ono da je Goran prodao svoj stan za toliki novac nevjerojatno je..,si,31,32,18,,,
,Question form,html.Form,2_6_3,,,,,,skipped,,234669.90000009537,,,234666.80000019073,234670.60000014305,2024-07-31T20:00:27.067Z,234737,2PuMEJFsNx,incremental,anketa,6645cf40bc81b65c5faccf1d,participant,hcpib7dulza9pefs,,,,,Za koliko novca nevjerojatno je da je Goran prodao svoj stan??,Ono da je Goran prodao svoj stan za toliki novac nevjerojatno je..,si,31,32,18,,,
,Answer indication,canvas.Screen,2_6_4,,,,,,skipped,,234676.20000004768,,,234666.80000019073,234677,2024-07-31T20:00:27.073Z,234737,2PuMEJFsNx,incremental,anketa,6645cf40bc81b65c5faccf1d,participant,hcpib7dulza9pefs,,,,,Za koliko novca nevjerojatno je da je Goran prodao svoj stan??,Ono da je Goran prodao svoj stan za toliki novac nevjerojatno je..,si,31,32,18,,,
,inter-stimulus,canvas.Screen,2_6_5,,,,,,response,2937.5,234677.60000014305,234669.8,234737,237674.5,237916,2024-07-31T20:00:30.313Z,237965.3,2PuMEJFsNx,incremental,anketa,6645cf40bc81b65c5faccf1d,participant,hcpib7dulza9pefs,,,mousedown,,Za koliko novca nevjerojatno je da je Goran prodao svoj stan??,Ono da je Goran prodao svoj stan za toliki novac nevjerojatno je..,si,31,32,18,,,
,Sequence,flow.Sequence,2_6,,,,,,completion,9646.100000000006,227990,227994.7,228028.4,237674.5,237918.10000014305,2024-07-31T20:00:30.314Z,237965.3,2PuMEJFsNx,incremental,anketa,6645cf40bc81b65c5faccf1d,participant,hcpib7dulza9pefs,,,,,Za koliko novca nevjerojatno je da je Goran prodao svoj stan??,Ono da je Goran prodao svoj stan za toliki novac nevjerojatno je..,si,31,32,18,,,
,context,canvas.Screen,2_7_0_0,,,,,,response,2399.2000000000116,237920.10000014305,237931.5,237965.3,240364.5,240611,2024-07-31T20:00:33.007Z,240671.8,2PuMEJFsNx,incremental,anketa,6645cf40bc81b65c5faccf1d,participant,hcpib7dulza9pefs,,,click,,Što bismo voljeli da Drago napravi bez prigovora??,Voljeli bismo da Drago opere auto bez prigovora..,si,26,22,16,,,
,Timer frame,html.Frame,2_7_0,,,,,,,2646.5000001907465,237919.20000004768,237931.5,237965.3,240611.80000019073,240612.80000019073,2024-07-31T20:00:33.009Z,240671.8,2PuMEJFsNx,incremental,anketa,6645cf40bc81b65c5faccf1d,participant,hcpib7dulza9pefs,,,,,Što bismo voljeli da Drago napravi bez prigovora??,Voljeli bismo da Drago opere auto bez prigovora..,si,26,22,16,,,
,stimulus,canvas.Screen,2_7_1_0,,,,,,response,2168.100000095379,240614.20000004768,240621.5,240671.8,242839.90000009537,243062.90000009537,2024-07-31T20:00:35.459Z,243109.8,2PuMEJFsNx,incremental,anketa,6645cf40bc81b65c5faccf1d,participant,hcpib7dulza9pefs,,7,click @7,,Što bismo voljeli da Drago napravi bez prigovora??,Voljeli bismo da Drago opere auto bez prigovora..,si,26,22,16,,,
,Timer frame,html.Frame,2_7_1,,,,,,,2392.5000001907465,240613.5,240621.5,240671.8,243064.30000019073,243065.20000004768,2024-07-31T20:00:35.462Z,243109.8,2PuMEJFsNx,incremental,anketa,6645cf40bc81b65c5faccf1d,participant,hcpib7dulza9pefs,,,,,Što bismo voljeli da Drago napravi bez prigovora??,Voljeli bismo da Drago opere auto bez prigovora..,si,26,22,16,,,
,Spremanje,canvas.Screen,2_7_2,,,,,,skipped,,243066.20000004768,,,243064.30000019073,243066.90000009537,2024-07-31T20:00:35.464Z,243109.8,2PuMEJFsNx,incremental,anketa,6645cf40bc81b65c5faccf1d,participant,hcpib7dulza9pefs,,,,,Što bismo voljeli da Drago napravi bez prigovora??,Voljeli bismo da Drago opere auto bez prigovora..,si,26,22,16,,,
,Question form,html.Form,2_7_3,,,,,,skipped,,243067.70000004768,,,243064.30000019073,243068.60000014305,2024-07-31T20:00:35.465Z,243109.8,2PuMEJFsNx,incremental,anketa,6645cf40bc81b65c5faccf1d,participant,hcpib7dulza9pefs,,,,,Što bismo voljeli da Drago napravi bez prigovora??,Voljeli bismo da Drago opere auto bez prigovora..,si,26,22,16,,,
,Answer indication,canvas.Screen,2_7_4,,,,,,skipped,,243075.80000019073,,,243064.30000019073,243076.5,2024-07-31T20:00:35.473Z,243109.8,2PuMEJFsNx,incremental,anketa,6645cf40bc81b65c5faccf1d,participant,hcpib7dulza9pefs,,,,,Što bismo voljeli da Drago napravi bez prigovora??,Voljeli bismo da Drago opere auto bez prigovora..,si,26,22,16,,,
,inter-stimulus,canvas.Screen,2_7_5,,,,,,response,1928.2000000000116,243077.10000014305,243076.2,243109.8,245038,245277,2024-07-31T20:00:37.674Z,245331.5,2PuMEJFsNx,incremental,anketa,6645cf40bc81b65c5faccf1d,participant,hcpib7dulza9pefs,,,mousedown,,Što bismo voljeli da Drago napravi bez prigovora??,Voljeli bismo da Drago opere auto bez prigovora..,si,26,22,16,,,
,Sequence,flow.Sequence,2_7,,,,,,completion,7072.700000000012,237918.90000009537,237931.5,237965.3,245038,245278.5,2024-07-31T20:00:37.675Z,245331.5,2PuMEJFsNx,incremental,anketa,6645cf40bc81b65c5faccf1d,participant,hcpib7dulza9pefs,,,,,Što bismo voljeli da Drago napravi bez prigovora??,Voljeli bismo da Drago opere auto bez prigovora..,si,26,22,16,,,
,context,canvas.Screen,2_8_0_0,,,,,,response,2858.4000000953674,245280.30000019073,245281.1,245331.5,248189.90000009537,248413.20000004768,2024-07-31T20:00:40.810Z,248456.7,2PuMEJFsNx,incremental,anketa,6645cf40bc81b65c5faccf1d,participant,hcpib7dulza9pefs,,,click,,Koliko vidim dječaka kojem je ljubazni poštar poklonio bicikla??,Vidim dječaka kojem je ljubazni poštar poklonio dva bicikla..,cnp,38,38,10,,,2305
,Timer frame,html.Frame,2_8_0,,,,,,,3082.800000190735,245279.5,245281.1,245331.5,248414.30000019073,248415.10000014305,2024-07-31T20:00:40.812Z,248456.7,2PuMEJFsNx,incremental,anketa,6645cf40bc81b65c5faccf1d,participant,hcpib7dulza9pefs,,,,,Koliko vidim dječaka kojem je ljubazni poštar poklonio bicikla??,Vidim dječaka kojem je ljubazni poštar poklonio dva bicikla..,cnp,38,38,10,,,2305
,stimulus,canvas.Screen,2_8_1_0,,,,,,response,2913.100000190723,248416.80000019073,248423.1,248456.7,251369.80000019073,251611.20000004768,2024-07-31T20:00:44.008Z,251668.1,2PuMEJFsNx,incremental,anketa,6645cf40bc81b65c5faccf1d,participant,hcpib7dulza9pefs,,2,click @2,,Koliko vidim dječaka kojem je ljubazni poštar poklonio bicikla??,Vidim dječaka kojem je ljubazni poštar poklonio dva bicikla..,cnp,38,38,10,,,2305
,Timer frame,html.Frame,2_8_1,,,,,,,3155.500000047672,248415.80000019073,248423.1,248456.7,251612.20000004768,251612.90000009537,2024-07-31T20:00:44.009Z,251668.1,2PuMEJFsNx,incremental,anketa,6645cf40bc81b65c5faccf1d,participant,hcpib7dulza9pefs,,,,,Koliko vidim dječaka kojem je ljubazni poštar poklonio bicikla??,Vidim dječaka kojem je ljubazni poštar poklonio dva bicikla..,cnp,38,38,10,,,2305
,Spremanje,canvas.Screen,2_8_2,,,,,,skipped,,251613.60000014305,,,251612.20000004768,251614.20000004768,2024-07-31T20:00:44.011Z,251668.1,2PuMEJFsNx,incremental,anketa,6645cf40bc81b65c5faccf1d,participant,hcpib7dulza9pefs,,,,,Koliko vidim dječaka kojem je ljubazni poštar poklonio bicikla??,Vidim dječaka kojem je ljubazni poštar poklonio dva bicikla..,cnp,38,38,10,,,2305
,Question form,html.Form,2_8_3,,,,,,skipped,,251614.80000019073,,,251612.20000004768,251615.5,2024-07-31T20:00:44.012Z,251668.1,2PuMEJFsNx,incremental,anketa,6645cf40bc81b65c5faccf1d,participant,hcpib7dulza9pefs,,,,,Koliko vidim dječaka kojem je ljubazni poštar poklonio bicikla??,Vidim dječaka kojem je ljubazni poštar poklonio dva bicikla..,cnp,38,38,10,,,2305
,Answer indication,canvas.Screen,2_8_4,,,,,,skipped,,251621.40000009537,,,251612.20000004768,251622.10000014305,2024-07-31T20:00:44.019Z,251668.1,2PuMEJFsNx,incremental,anketa,6645cf40bc81b65c5faccf1d,participant,hcpib7dulza9pefs,,,,,Koliko vidim dječaka kojem je ljubazni poštar poklonio bicikla??,Vidim dječaka kojem je ljubazni poštar poklonio dva bicikla..,cnp,38,38,10,,,2305
,inter-stimulus,canvas.Screen,2_8_5,,,,,,response,1352.200000190729,251622.70000004768,251617.8,251668.1,253020.30000019073,253248.5,2024-07-31T20:00:45.645Z,253299,2PuMEJFsNx,incremental,anketa,6645cf40bc81b65c5faccf1d,participant,hcpib7dulza9pefs,,,mousedown,,Koliko vidim dječaka kojem je ljubazni poštar poklonio bicikla??,Vidim dječaka kojem je ljubazni poštar poklonio dva bicikla..,cnp,38,38,10,,,2305
,Sequence,flow.Sequence,2_8,,,,,,completion,7688.800000190735,245279,245281.1,245331.5,253020.30000019073,253250.70000004768,2024-07-31T20:00:45.647Z,253299,2PuMEJFsNx,incremental,anketa,6645cf40bc81b65c5faccf1d,participant,hcpib7dulza9pefs,,,,,Koliko vidim dječaka kojem je ljubazni poštar poklonio bicikla??,Vidim dječaka kojem je ljubazni poštar poklonio dva bicikla..,cnp,38,38,10,,,2305
,context,canvas.Screen,2_9_0_0,,,,,,response,1809.6000001430511,253252.60000014305,253248.6,253299,255108.60000014305,255326.90000009537,2024-07-31T20:00:47.723Z,255383.8,2PuMEJFsNx,incremental,anketa,6645cf40bc81b65c5faccf1d,participant,hcpib7dulza9pefs,,,click,,"Što je kupio tata, i spremila je majka?","Tata je kupio meso, a majka je spremila salatu.",csi,,,7,,,
,Timer frame,html.Frame,2_9_0,,,,,,,2028.8000001907349,253251.80000019073,253248.6,253299,255327.80000019073,255328.80000019073,2024-07-31T20:00:47.725Z,255383.8,2PuMEJFsNx,incremental,anketa,6645cf40bc81b65c5faccf1d,participant,hcpib7dulza9pefs,,,,,"Što je kupio tata, i spremila je majka?","Tata je kupio meso, a majka je spremila salatu.",csi,,,7,,,
,stimulus,canvas.Screen,2_9_1_0,,,,,,response,2333.100000095379,255330.30000019073,255333.4,255383.8,257716.90000009537,257946.40000009537,2024-07-31T20:00:50.343Z,257990,2PuMEJFsNx,incremental,anketa,6645cf40bc81b65c5faccf1d,participant,hcpib7dulza9pefs,,4,click @4,,"Što je kupio tata, i spremila je majka?","Tata je kupio meso, a majka je spremila salatu.",csi,,,7,,,
,Timer frame,html.Frame,2_9_1,,,,,,,2563.600000095379,255329.40000009537,255333.4,255383.8,257947.40000009537,257948.40000009537,2024-07-31T20:00:50.345Z,257990,2PuMEJFsNx,incremental,anketa,6645cf40bc81b65c5faccf1d,participant,hcpib7dulza9pefs,,,,,"Što je kupio tata, i spremila je majka?","Tata je kupio meso, a majka je spremila salatu.",csi,,,7,,,
,Spremanje,canvas.Screen,2_9_2,,,,,,skipped,,257949.10000014305,,,257947.40000009537,257949.70000004768,2024-07-31T20:00:50.346Z,257990,2PuMEJFsNx,incremental,anketa,6645cf40bc81b65c5faccf1d,participant,hcpib7dulza9pefs,,,,,"Što je kupio tata, i spremila je majka?","Tata je kupio meso, a majka je spremila salatu.",csi,,,7,,,
,Question form,html.Form,2_9_3,,,,,,skipped,,257950.5,,,257947.40000009537,257951.10000014305,2024-07-31T20:00:50.348Z,257990,2PuMEJFsNx,incremental,anketa,6645cf40bc81b65c5faccf1d,participant,hcpib7dulza9pefs,,,,,"Što je kupio tata, i spremila je majka?","Tata je kupio meso, a majka je spremila salatu.",csi,,,7,,,
,Answer indication,canvas.Screen,2_9_4,,,,,,skipped,,257957.90000009537,,,257947.40000009537,257958.5,2024-07-31T20:00:50.355Z,257990,2PuMEJFsNx,incremental,anketa,6645cf40bc81b65c5faccf1d,participant,hcpib7dulza9pefs,,,,,"Što je kupio tata, i spremila je majka?","Tata je kupio meso, a majka je spremila salatu.",csi,,,7,,,
,inter-stimulus,canvas.Screen,2_9_5,,,,,,response,797.6000001430511,257959,257956.3,257990,258787.60000014305,259044.80000019073,2024-07-31T20:00:51.441Z,259099.7,2PuMEJFsNx,incremental,anketa,6645cf40bc81b65c5faccf1d,participant,hcpib7dulza9pefs,,,mousedown,,"Što je kupio tata, i spremila je majka?","Tata je kupio meso, a majka je spremila salatu.",csi,,,7,,,
,Sequence,flow.Sequence,2_9,,,,,,completion,5488.600000143051,253251.5,253248.6,253299,258787.60000014305,259046.60000014305,2024-07-31T20:00:51.443Z,259099.7,2PuMEJFsNx,incremental,anketa,6645cf40bc81b65c5faccf1d,participant,hcpib7dulza9pefs,,,,,"Što je kupio tata, i spremila je majka?","Tata je kupio meso, a majka je spremila salatu.",csi,,,7,,,
,context,canvas.Screen,2_10_0_0,,,,,,response,3131.2999999999884,259048.5,259049.2,259099.7,262231,262452.80000019073,2024-07-31T20:00:54.849Z,262496,2PuMEJFsNx,incremental,anketa,6645cf40bc81b65c5faccf1d,participant,hcpib7dulza9pefs,,,click,,"To su oni siromasi, koje je htio nahraniti i moliti se bogu..",Hoće nahraniti siromahe i moliti se bogu.,csi,42,0,6,,,
,Timer frame,html.Frame,2_10_0,,,,,,,3354.2999999999884,259047.60000014305,259049.2,259099.7,262454,262454.7000000477,2024-07-31T20:00:54.851Z,262496,2PuMEJFsNx,incremental,anketa,6645cf40bc81b65c5faccf1d,participant,hcpib7dulza9pefs,,,,,"To su oni siromasi, koje je htio nahraniti i moliti se bogu..",Hoće nahraniti siromahe i moliti se bogu.,csi,42,0,6,,,
,stimulus,canvas.Screen,2_10_1_0,,,,,,response,4752.900000095367,262456.40000009537,262462.3,262496,267248.90000009537,267463.5,2024-07-31T20:00:59.860Z,267540.2,2PuMEJFsNx,incremental,anketa,6645cf40bc81b65c5faccf1d,participant,hcpib7dulza9pefs,,3,click @3,,"To su oni siromasi, koje je htio nahraniti i moliti se bogu..",Hoće nahraniti siromahe i moliti se bogu.,csi,42,0,6,,,
,Timer frame,html.Frame,2_10_1,,,,,,,4968.5,262455.5,262462.3,262496,267464.5,267465.2000000477,2024-07-31T20:00:59.862Z,267540.2,2PuMEJFsNx,incremental,anketa,6645cf40bc81b65c5faccf1d,participant,hcpib7dulza9pefs,,,,,"To su oni siromasi, koje je htio nahraniti i moliti se bogu..",Hoće nahraniti siromahe i moliti se bogu.,csi,42,0,6,,,
,Spremanje,canvas.Screen,2_10_2,,,,,,skipped,,267465.90000009537,,,267464.5,267466.5,2024-07-31T20:00:59.863Z,267540.2,2PuMEJFsNx,incremental,anketa,6645cf40bc81b65c5faccf1d,participant,hcpib7dulza9pefs,,,,,"To su oni siromasi, koje je htio nahraniti i moliti se bogu..",Hoće nahraniti siromahe i moliti se bogu.,csi,42,0,6,,,
,Question form,html.Form,2_10_3,,,,,,skipped,,267467.2000000477,,,267464.5,267467.80000019073,2024-07-31T20:00:59.864Z,267540.2,2PuMEJFsNx,incremental,anketa,6645cf40bc81b65c5faccf1d,participant,hcpib7dulza9pefs,,,,,"To su oni siromasi, koje je htio nahraniti i moliti se bogu..",Hoće nahraniti siromahe i moliti se bogu.,csi,42,0,6,,,
,Answer indication,canvas.Screen,2_10_4,,,,,,skipped,,267474,,,267464.5,267474.90000009537,2024-07-31T20:00:59.871Z,267540.2,2PuMEJFsNx,incremental,anketa,6645cf40bc81b65c5faccf1d,participant,hcpib7dulza9pefs,,,,,"To su oni siromasi, koje je htio nahraniti i moliti se bogu..",Hoće nahraniti siromahe i moliti se bogu.,csi,42,0,6,,,
,inter-stimulus,canvas.Screen,2_10_5,,,,,,response,5989.600000190723,267475.7000000477,267472.9,267540.2,273529.80000019073,273743.5,2024-07-31T20:01:06.140Z,273794.6,2PuMEJFsNx,incremental,anketa,6645cf40bc81b65c5faccf1d,participant,hcpib7dulza9pefs,,,mousedown,,"To su oni siromasi, koje je htio nahraniti i moliti se bogu..",Hoće nahraniti siromahe i moliti se bogu.,csi,42,0,6,,,
,Sequence,flow.Sequence,2_10,,,,,,completion,14430.100000190723,259047.30000019073,259049.2,259099.7,273529.80000019073,273745.80000019073,2024-07-31T20:01:06.142Z,273794.6,2PuMEJFsNx,incremental,anketa,6645cf40bc81b65c5faccf1d,participant,hcpib7dulza9pefs,,,,,"To su oni siromasi, koje je htio nahraniti i moliti se bogu..",Hoće nahraniti siromahe i moliti se bogu.,csi,42,0,6,,,
,context,canvas.Screen,2_11_0_0,,,,,,response,1933.0000001430744,273747.7000000477,273744.2,273794.6,275727.60000014305,275953,2024-07-31T20:01:08.349Z,276014.1,2PuMEJFsNx,incremental,anketa,6645cf40bc81b65c5faccf1d,participant,hcpib7dulza9pefs,,,click,,Kakva čovjeka svatko tko poznaje može potvrditi njegov integritet??,Svatko tko poznaje onog čovjeka može potvrditi njegov integritet..,si,33,31,12,,,2305
,Timer frame,html.Frame,2_11_0,,,,,,,2159.3000000953907,273746.90000009537,273744.2,273794.6,275953.90000009537,275954.60000014305,2024-07-31T20:01:08.351Z,276014.1,2PuMEJFsNx,incremental,anketa,6645cf40bc81b65c5faccf1d,participant,hcpib7dulza9pefs,,,,,Kakva čovjeka svatko tko poznaje može potvrditi njegov integritet??,Svatko tko poznaje onog čovjeka može potvrditi njegov integritet..,si,33,31,12,,,2305
,stimulus,canvas.Screen,2_11_1_0,,,,,,response,2622.100000047707,275956.10000014305,275963.6,276014.1,278636.2000000477,278882.2000000477,2024-07-31T20:01:11.279Z,278922.8,2PuMEJFsNx,incremental,anketa,6645cf40bc81b65c5faccf1d,participant,hcpib7dulza9pefs,,2,click @2,,Kakva čovjeka svatko tko poznaje može potvrditi njegov integritet??,Svatko tko poznaje onog čovjeka može potvrditi njegov integritet..,si,33,31,12,,,2305
,Timer frame,html.Frame,2_11_1,,,,,,,2869.100000047707,275955.10000014305,275963.6,276014.1,278883.2000000477,278883.90000009537,2024-07-31T20:01:11.280Z,278922.8,2PuMEJFsNx,incremental,anketa,6645cf40bc81b65c5faccf1d,participant,hcpib7dulza9pefs,,,,,Kakva čovjeka svatko tko poznaje može potvrditi njegov integritet??,Svatko tko poznaje onog čovjeka može potvrditi njegov integritet..,si,33,31,12,,,2305
,Spremanje,canvas.Screen,2_11_2,,,,,,skipped,,278884.60000014305,,,278883.2000000477,278885.2000000477,2024-07-31T20:01:11.282Z,278922.8,2PuMEJFsNx,incremental,anketa,6645cf40bc81b65c5faccf1d,participant,hcpib7dulza9pefs,,,,,Kakva čovjeka svatko tko poznaje može potvrditi njegov integritet??,Svatko tko poznaje onog čovjeka može potvrditi njegov integritet..,si,33,31,12,,,2305
,Question form,html.Form,2_11_3,,,,,,skipped,,278885.7000000477,,,278883.2000000477,278886.30000019073,2024-07-31T20:01:11.283Z,278922.8,2PuMEJFsNx,incremental,anketa,6645cf40bc81b65c5faccf1d,participant,hcpib7dulza9pefs,,,,,Kakva čovjeka svatko tko poznaje može potvrditi njegov integritet??,Svatko tko poznaje onog čovjeka može potvrditi njegov integritet..,si,33,31,12,,,2305
,Answer indication,canvas.Screen,2_11_4,,,,,,skipped,,278893.5,,,278883.2000000477,278894.10000014305,2024-07-31T20:01:11.291Z,278922.8,2PuMEJFsNx,incremental,anketa,6645cf40bc81b65c5faccf1d,participant,hcpib7dulza9pefs,,,,,Kakva čovjeka svatko tko poznaje može potvrditi njegov integritet??,Svatko tko poznaje onog čovjeka može potvrditi njegov integritet..,si,33,31,12,,,2305
,inter-stimulus,canvas.Screen,2_11_5,,,,,,response,1058.9000000476954,278894.7000000477,278889.2,278922.8,279981.7000000477,280238.80000019073,2024-07-31T20:01:12.635Z,280301.5,2PuMEJFsNx,incremental,anketa,6645cf40bc81b65c5faccf1d,participant,hcpib7dulza9pefs,,,mousedown,,Kakva čovjeka svatko tko poznaje može potvrditi njegov integritet??,Svatko tko poznaje onog čovjeka može potvrditi njegov integritet..,si,33,31,12,,,2305
,Sequence,flow.Sequence,2_11,,,,,,completion,6187.100000047707,273746.7000000477,273744.2,273794.6,279981.7000000477,280241,2024-07-31T20:01:12.637Z,280301.5,2PuMEJFsNx,incremental,anketa,6645cf40bc81b65c5faccf1d,participant,hcpib7dulza9pefs,,,,,Kakva čovjeka svatko tko poznaje može potvrditi njegov integritet??,Svatko tko poznaje onog čovjeka može potvrditi njegov integritet..,si,33,31,12,,,2305
,context,canvas.Screen,2_12_0_0,,,,,,response,1930.7000000476837,280242.80000019073,280251.1,280301.5,282232.2000000477,282446,2024-07-31T20:01:14.842Z,282487.4,2PuMEJFsNx,incremental,anketa,6645cf40bc81b65c5faccf1d,participant,hcpib7dulza9pefs,,,click,,Vidimo plažu od koje smo bili daleko.,Vidimo plažu od koje smo bili daleko.,ai,,,25,,,
,Timer frame,html.Frame,2_12_0,,,,,,,2145.5,280242.10000014305,280251.1,280301.5,282447,282447.80000019073,2024-07-31T20:01:14.844Z,282487.4,2PuMEJFsNx,incremental,anketa,6645cf40bc81b65c5faccf1d,participant,hcpib7dulza9pefs,,,,,Vidimo plažu od koje smo bili daleko.,Vidimo plažu od koje smo bili daleko.,ai,,,25,,,
,stimulus,canvas.Screen,2_12_1_0,,,,,,response,3303.9000001907116,282449.5,282453.8,282487.4,285791.30000019073,286041.80000019073,2024-07-31T20:01:18.438Z,286102.1,2PuMEJFsNx,incremental,anketa,6645cf40bc81b65c5faccf1d,participant,hcpib7dulza9pefs,,7,click @7,,Vidimo plažu od koje smo bili daleko.,Vidimo plažu od koje smo bili daleko.,ai,,,25,,,
,Timer frame,html.Frame,2_12_1,,,,,,,3555.3000000476604,282448.80000019073,282453.8,282487.4,286042.7000000477,286043.30000019073,2024-07-31T20:01:18.440Z,286102.1,2PuMEJFsNx,incremental,anketa,6645cf40bc81b65c5faccf1d,participant,hcpib7dulza9pefs,,,,,Vidimo plažu od koje smo bili daleko.,Vidimo plažu od koje smo bili daleko.,ai,,,25,,,
,Spremanje,canvas.Screen,2_12_2,,,,,,skipped,,286044.10000014305,,,286042.7000000477,286044.7000000477,2024-07-31T20:01:18.441Z,286102.1,2PuMEJFsNx,incremental,anketa,6645cf40bc81b65c5faccf1d,participant,hcpib7dulza9pefs,,,,,Vidimo plažu od koje smo bili daleko.,Vidimo plažu od koje smo bili daleko.,ai,,,25,,,
,Question form,html.Form,2_12_3,,,,,,skipped,,286045.40000009537,,,286042.7000000477,286046.10000014305,2024-07-31T20:01:18.443Z,286102.1,2PuMEJFsNx,incremental,anketa,6645cf40bc81b65c5faccf1d,participant,hcpib7dulza9pefs,,,,,Vidimo plažu od koje smo bili daleko.,Vidimo plažu od koje smo bili daleko.,ai,,,25,,,
,Answer indication,canvas.Screen,2_12_4,,,,,,skipped,,286051.5,,,286042.7000000477,286052.30000019073,2024-07-31T20:01:18.449Z,286102.1,2PuMEJFsNx,incremental,anketa,6645cf40bc81b65c5faccf1d,participant,hcpib7dulza9pefs,,,,,Vidimo plažu od koje smo bili daleko.,Vidimo plažu od koje smo bili daleko.,ai,,,25,,,
,inter-stimulus,canvas.Screen,2_12_5,,,,,,response,677.4000000000233,286053,286051.7,286102.1,286779.5,287017.90000009537,2024-07-31T20:01:19.414Z,287043.7,2PuMEJFsNx,incremental,anketa,6645cf40bc81b65c5faccf1d,participant,hcpib7dulza9pefs,,,mousedown,,Vidimo plažu od koje smo bili daleko.,Vidimo plažu od koje smo bili daleko.,ai,,,25,,,
,Sequence,flow.Sequence,2_12,,,,,,completion,6478,280241.80000019073,280251.1,280301.5,286779.5,287018.60000014305,2024-07-31T20:01:19.415Z,287043.7,2PuMEJFsNx,incremental,anketa,6645cf40bc81b65c5faccf1d,participant,hcpib7dulza9pefs,,,,,Vidimo plažu od koje smo bili daleko.,Vidimo plažu od koje smo bili daleko.,ai,,,25,,,
,context,canvas.Screen,2_13_0_0,,,,,,response,2309.500000047672,287019.2000000477,287026.8,287043.7,289353.2000000477,289570.30000019073,2024-07-31T20:01:21.967Z,289633.1,2PuMEJFsNx,incremental,anketa,6645cf40bc81b65c5faccf1d,participant,hcpib7dulza9pefs,,,click,,Čije sam cvijeće izašao iz kuće i zaboravio zaliti?,Izašao sam iz kuće i zaboravio zaliti majkino cvijeće.,csi,0,0,4,ZALITI MAJKINO CVIJEĆE; ZALITI MAMINO CVIJECE; ZALITI CVIJECE MAJKE; ZALITI MAJČINO CVIJEĆE; ZALITI CVIJEĆE MAJKE; ZALITI MAJKINO CVIJECE; MAJKINO CVIJEĆE ZALITI; MAJKINO CVIJECE ZALITI; ZALITI CVIJECE; ZALITI CVIJEĆE; ZALITI CVJEĆE; ZALITI CVJECE,Što sam zaboravio napraviti?,
,Timer frame,html.Frame,2_13_0,,,,,,,2527.4000001430395,287018.90000009537,287026.8,287043.7,289571.10000014305,289571.7000000477,2024-07-31T20:01:21.968Z,289633.1,2PuMEJFsNx,incremental,anketa,6645cf40bc81b65c5faccf1d,participant,hcpib7dulza9pefs,,,,,Čije sam cvijeće izašao iz kuće i zaboravio zaliti?,Izašao sam iz kuće i zaboravio zaliti majkino cvijeće.,csi,0,0,4,ZALITI MAJKINO CVIJEĆE; ZALITI MAMINO CVIJECE; ZALITI CVIJECE MAJKE; ZALITI MAJČINO CVIJEĆE; ZALITI CVIJEĆE MAJKE; ZALITI MAJKINO CVIJECE; MAJKINO CVIJEĆE ZALITI; MAJKINO CVIJECE ZALITI; ZALITI CVIJECE; ZALITI CVIJEĆE; ZALITI CVJEĆE; ZALITI CVJECE,Što sam zaboravio napraviti?,
,stimulus,canvas.Screen,2_13_1_0,,,,,,response,3096.4000000000233,289573.2000000477,289565.8,289633.1,292729.5,292981.90000009537,2024-07-31T20:01:25.378Z,293029.3,2PuMEJFsNx,incremental,anketa,6645cf40bc81b65c5faccf1d,participant,hcpib7dulza9pefs,,1,click @1,,Čije sam cvijeće izašao iz kuće i zaboravio zaliti?,Izašao sam iz kuće i zaboravio zaliti majkino cvijeće.,csi,0,0,4,ZALITI MAJKINO CVIJEĆE; ZALITI MAMINO CVIJECE; ZALITI CVIJECE MAJKE; ZALITI MAJČINO CVIJEĆE; ZALITI CVIJEĆE MAJKE; ZALITI MAJKINO CVIJECE; MAJKINO CVIJEĆE ZALITI; MAJKINO CVIJECE ZALITI; ZALITI CVIJECE; ZALITI CVIJEĆE; ZALITI CVJEĆE; ZALITI CVJECE,Što sam zaboravio napraviti?,
,Timer frame,html.Frame,2_13_1,,,,,,,3350.0000001430744,289572.40000009537,289565.8,289633.1,292983.10000014305,292984.10000014305,2024-07-31T20:01:25.381Z,293029.3,2PuMEJFsNx,incremental,anketa,6645cf40bc81b65c5faccf1d,participant,hcpib7dulza9pefs,,,,,Čije sam cvijeće izašao iz kuće i zaboravio zaliti?,Izašao sam iz kuće i zaboravio zaliti majkino cvijeće.,csi,0,0,4,ZALITI MAJKINO CVIJEĆE; ZALITI MAMINO CVIJECE; ZALITI CVIJECE MAJKE; ZALITI MAJČINO CVIJEĆE; ZALITI CVIJEĆE MAJKE; ZALITI MAJKINO CVIJECE; MAJKINO CVIJEĆE ZALITI; MAJKINO CVIJECE ZALITI; ZALITI CVIJECE; ZALITI CVIJEĆE; ZALITI CVJEĆE; ZALITI CVJECE,Što sam zaboravio napraviti?,
,Spremanje,canvas.Screen,2_13_2,,,,,,response,2537.4000000476954,292984.90000009537,292978.8,293029.3,295566.7000000477,295783.7000000477,2024-07-31T20:01:28.180Z,295803.5,2PuMEJFsNx,incremental,anketa,6645cf40bc81b65c5faccf1d,participant,hcpib7dulza9pefs,,,mousedown,,Čije sam cvijeće izašao iz kuće i zaboravio zaliti?,Izašao sam iz kuće i zaboravio zaliti majkino cvijeće.,csi,0,0,4,ZALITI MAJKINO CVIJEĆE; ZALITI MAMINO CVIJECE; ZALITI CVIJECE MAJKE; ZALITI MAJČINO CVIJEĆE; ZALITI CVIJEĆE MAJKE; ZALITI MAJKINO CVIJECE; MAJKINO CVIJEĆE ZALITI; MAJKINO CVIJECE ZALITI; ZALITI CVIJECE; ZALITI CVIJEĆE; ZALITI CVJEĆE; ZALITI CVJECE,Što sam zaboravio napraviti?,
,Question form,html.Form,2_13_3,,,,,,form submission,10061.600000143051,295785.10000014305,295786.7,295803.5,305865.10000014305,305866.10000014305,2024-07-31T20:01:38.263Z,305908.7,2PuMEJFsNx,incremental,anketa,6645cf40bc81b65c5faccf1d,participant,hcpib7dulza9pefs,,,,zaliti majčino cvijeće,Čije sam cvijeće izašao iz kuće i zaboravio zaliti?,Izašao sam iz kuće i zaboravio zaliti majkino cvijeće.,csi,0,0,4,ZALITI MAJKINO CVIJEĆE; ZALITI MAMINO CVIJECE; ZALITI CVIJECE MAJKE; ZALITI MAJČINO CVIJEĆE; ZALITI CVIJEĆE MAJKE; ZALITI MAJKINO CVIJECE; MAJKINO CVIJEĆE ZALITI; MAJKINO CVIJECE ZALITI; ZALITI CVIJECE; ZALITI CVIJEĆE; ZALITI CVJEĆE; ZALITI CVJECE,Što sam zaboravio napraviti?,
,Answer indication,canvas.Screen,2_13_4,,,,,,response,1047.4000001430395,305868.80000019073,305858.3,305908.7,306956.10000014305,307189.10000014305,2024-07-31T20:01:39.586Z,307236.9,2PuMEJFsNx,incremental,anketa,6645cf40bc81b65c5faccf1d,participant,hcpib7dulza9pefs,,,mousedown,,Čije sam cvijeće izašao iz kuće i zaboravio zaliti?,Izašao sam iz kuće i zaboravio zaliti majkino cvijeće.,csi,0,0,4,ZALITI MAJKINO CVIJEĆE; ZALITI MAMINO CVIJECE; ZALITI CVIJECE MAJKE; ZALITI MAJČINO CVIJEĆE; ZALITI CVIJEĆE MAJKE; ZALITI MAJKINO CVIJECE; MAJKINO CVIJEĆE ZALITI; MAJKINO CVIJECE ZALITI; ZALITI CVIJECE; ZALITI CVIJEĆE; ZALITI CVJEĆE; ZALITI CVJECE,Što sam zaboravio napraviti?,
,inter-stimulus,canvas.Screen,2_13_5,,,,,,response,1127.9000001907116,307190.60000014305,307203.3,307236.9,308364.80000019073,308573.5,2024-07-31T20:01:40.970Z,308615.8,2PuMEJFsNx,incremental,anketa,6645cf40bc81b65c5faccf1d,participant,hcpib7dulza9pefs,,,mousedown,,Čije sam cvijeće izašao iz kuće i zaboravio zaliti?,Izašao sam iz kuće i zaboravio zaliti majkino cvijeće.,csi,0,0,4,ZALITI MAJKINO CVIJEĆE; ZALITI MAMINO CVIJECE; ZALITI CVIJECE MAJKE; ZALITI MAJČINO CVIJEĆE; ZALITI CVIJEĆE MAJKE; ZALITI MAJKINO CVIJECE; MAJKINO CVIJEĆE ZALITI; MAJKINO CVIJECE ZALITI; ZALITI CVIJECE; ZALITI CVIJEĆE; ZALITI CVJEĆE; ZALITI CVJECE,Što sam zaboravio napraviti?,
,Sequence,flow.Sequence,2_13,,,,,,completion,21321.100000190723,287018.90000009537,287026.8,287043.7,308364.80000019073,308574,2024-07-31T20:01:40.970Z,308615.8,2PuMEJFsNx,incremental,anketa,6645cf40bc81b65c5faccf1d,participant,hcpib7dulza9pefs,,,,,Čije sam cvijeće izašao iz kuće i zaboravio zaliti?,Izašao sam iz kuće i zaboravio zaliti majkino cvijeće.,csi,0,0,4,ZALITI MAJKINO CVIJEĆE; ZALITI MAMINO CVIJECE; ZALITI CVIJECE MAJKE; ZALITI MAJČINO CVIJEĆE; ZALITI CVIJEĆE MAJKE; ZALITI MAJKINO CVIJECE; MAJKINO CVIJEĆE ZALITI; MAJKINO CVIJECE ZALITI; ZALITI CVIJECE; ZALITI CVIJEĆE; ZALITI CVJEĆE; ZALITI CVJECE,Što sam zaboravio napraviti?,
,context,canvas.Screen,2_14_0_0,,,,,,response,3624.9000000476954,308574.5,308582.1,308615.8,312240.7000000477,312470.90000009537,2024-07-31T20:01:44.867Z,312516.4,2PuMEJFsNx,incremental,anketa,6645cf40bc81b65c5faccf1d,participant,hcpib7dulza9pefs,,,click,,"Tko se nadaš da će napraviti prezentaciju, a Đure nacrtati sliku??","Nadaš se da će Vesna napraviti prezentaciju, a Đure nacrtati sliku..",csi,42,44,2,,,
,Timer frame,html.Frame,2_14_0,,,,,,,3856.300000143063,308574.30000019073,308582.1,308615.8,312472.10000014305,312473,2024-07-31T20:01:44.869Z,312516.4,2PuMEJFsNx,incremental,anketa,6645cf40bc81b65c5faccf1d,participant,hcpib7dulza9pefs,,,,,"Tko se nadaš da će napraviti prezentaciju, a Đure nacrtati sliku??","Nadaš se da će Vesna napraviti prezentaciju, a Đure nacrtati sliku..",csi,42,44,2,,,
,stimulus,canvas.Screen,2_14_1_0,,,,,,response,3983.000000095344,312474.5,312482.8,312516.4,316499.40000009537,316741.40000009537,2024-07-31T20:01:49.138Z,316803.9,2PuMEJFsNx,incremental,anketa,6645cf40bc81b65c5faccf1d,participant,hcpib7dulza9pefs,,3,click @3,,"Tko se nadaš da će napraviti prezentaciju, a Đure nacrtati sliku??","Nadaš se da će Vesna napraviti prezentaciju, a Đure nacrtati sliku..",csi,42,44,2,,,
,Timer frame,html.Frame,2_14_1,,,,,,,4225.30000004766,312473.80000019073,312482.8,312516.4,316741.7000000477,316741.90000009537,2024-07-31T20:01:49.138Z,316803.9,2PuMEJFsNx,incremental,anketa,6645cf40bc81b65c5faccf1d,participant,hcpib7dulza9pefs,,,,,"Tko se nadaš da će napraviti prezentaciju, a Đure nacrtati sliku??","Nadaš se da će Vesna napraviti prezentaciju, a Đure nacrtati sliku..",csi,42,44,2,,,
,Spremanje,canvas.Screen,2_14_2,,,,,,skipped,,316742.10000014305,,,316741.7000000477,316742.2000000477,2024-07-31T20:01:49.139Z,316803.9,2PuMEJFsNx,incremental,anketa,6645cf40bc81b65c5faccf1d,participant,hcpib7dulza9pefs,,,,,"Tko se nadaš da će napraviti prezentaciju, a Đure nacrtati sliku??","Nadaš se da će Vesna napraviti prezentaciju, a Đure nacrtati sliku..",csi,42,44,2,,,
,Question form,html.Form,2_14_3,,,,,,skipped,,316742.5,,,316741.7000000477,316742.7000000477,2024-07-31T20:01:49.139Z,316803.9,2PuMEJFsNx,incremental,anketa,6645cf40bc81b65c5faccf1d,participant,hcpib7dulza9pefs,,,,,"Tko se nadaš da će napraviti prezentaciju, a Đure nacrtati sliku??","Nadaš se da će Vesna napraviti prezentaciju, a Đure nacrtati sliku..",csi,42,44,2,,,
,Answer indication,canvas.Screen,2_14_4,,,,,,skipped,,316745.10000014305,,,316741.7000000477,316745.40000009537,2024-07-31T20:01:49.142Z,316803.9,2PuMEJFsNx,incremental,anketa,6645cf40bc81b65c5faccf1d,participant,hcpib7dulza9pefs,,,,,"Tko se nadaš da će napraviti prezentaciju, a Đure nacrtati sliku??","Nadaš se da će Vesna napraviti prezentaciju, a Đure nacrtati sliku..",csi,42,44,2,,,
,inter-stimulus,canvas.Screen,2_14_5,,,,,,response,1447.7000001430279,316745.60000014305,316736.6,316803.9,318251.60000014305,318492.30000019073,2024-07-31T20:01:50.889Z,318535.5,2PuMEJFsNx,incremental,anketa,6645cf40bc81b65c5faccf1d,participant,hcpib7dulza9pefs,,,mousedown,,"Tko se nadaš da će napraviti prezentaciju, a Đure nacrtati sliku??","Nadaš se da će Vesna napraviti prezentaciju, a Đure nacrtati sliku..",csi,42,44,2,,,
,Sequence,flow.Sequence,2_14,,,,,,completion,9635.800000143063,308574.2000000477,308582.1,308615.8,318251.60000014305,318494.40000009537,2024-07-31T20:01:50.891Z,318535.5,2PuMEJFsNx,incremental,anketa,6645cf40bc81b65c5faccf1d,participant,hcpib7dulza9pefs,,,,,"Tko se nadaš da će napraviti prezentaciju, a Đure nacrtati sliku??","Nadaš se da će Vesna napraviti prezentaciju, a Đure nacrtati sliku..",csi,42,44,2,,,
,context,canvas.Screen,2_15_0_0,,,,,,response,2151.800000190735,318496.5,318501.8,318535.5,320687.30000019073,320913.30000019073,2024-07-31T20:01:53.310Z,320973.4,2PuMEJFsNx,incremental,anketa,6645cf40bc81b65c5faccf1d,participant,hcpib7dulza9pefs,,,click,,Kakve izgrađene u viktorijansko doba te zgrade su izgrađene??,Te su zgrade izgrađene u viktorijansko doba.,nf,36,,43,,,
,Timer frame,html.Frame,2_15_0,,,,,,,2378.600000143051,318495.7000000477,318501.8,318535.5,320914.10000014305,320914.80000019073,2024-07-31T20:01:53.311Z,320973.4,2PuMEJFsNx,incremental,anketa,6645cf40bc81b65c5faccf1d,participant,hcpib7dulza9pefs,,,,,Kakve izgrađene u viktorijansko doba te zgrade su izgrađene??,Te su zgrade izgrađene u viktorijansko doba.,nf,36,,43,,,
,stimulus,canvas.Screen,2_15_1_0,,,,,,response,2703.5999999999767,320916.7000000477,320922.9,320973.4,323677,323908.2000000477,2024-07-31T20:01:56.305Z,323966.2,2PuMEJFsNx,incremental,anketa,6645cf40bc81b65c5faccf1d,participant,hcpib7dulza9pefs,,1,click @1,,Kakve izgrađene u viktorijansko doba te zgrade su izgrađene??,Te su zgrade izgrađene u viktorijansko doba.,nf,36,,43,,,
,Timer frame,html.Frame,2_15_1,,,,,,,2936.000000095344,320915.60000014305,320922.9,320973.4,323909.40000009537,323910.30000019073,2024-07-31T20:01:56.307Z,323966.2,2PuMEJFsNx,incremental,anketa,6645cf40bc81b65c5faccf1d,participant,hcpib7dulza9pefs,,,,,Kakve izgrađene u viktorijansko doba te zgrade su izgrađene??,Te su zgrade izgrađene u viktorijansko doba.,nf,36,,43,,,
,Spremanje,canvas.Screen,2_15_2,,,,,,skipped,,323911.10000014305,,,323909.40000009537,323911.60000014305,2024-07-31T20:01:56.308Z,323966.2,2PuMEJFsNx,incremental,anketa,6645cf40bc81b65c5faccf1d,participant,hcpib7dulza9pefs,,,,,Kakve izgrađene u viktorijansko doba te zgrade su izgrađene??,Te su zgrade izgrađene u viktorijansko doba.,nf,36,,43,,,
,Question form,html.Form,2_15_3,,,,,,skipped,,323912.40000009537,,,323909.40000009537,323912.90000009537,2024-07-31T20:01:56.309Z,323966.2,2PuMEJFsNx,incremental,anketa,6645cf40bc81b65c5faccf1d,participant,hcpib7dulza9pefs,,,,,Kakve izgrađene u viktorijansko doba te zgrade su izgrađene??,Te su zgrade izgrađene u viktorijansko doba.,nf,36,,43,,,
,Answer indication,canvas.Screen,2_15_4,,,,,,skipped,,323919.60000014305,,,323909.40000009537,323920.5,2024-07-31T20:01:56.317Z,323966.2,2PuMEJFsNx,incremental,anketa,6645cf40bc81b65c5faccf1d,participant,hcpib7dulza9pefs,,,,,Kakve izgrađene u viktorijansko doba te zgrade su izgrađene??,Te su zgrade izgrađene u viktorijansko doba.,nf,36,,43,,,
,inter-stimulus,canvas.Screen,2_15_5,,,,,,response,4104.000000047672,323920.90000009537,323898.9,323966.2,328070.2000000477,328292,2024-07-31T20:02:00.689Z,328354.6,2PuMEJFsNx,incremental,anketa,6645cf40bc81b65c5faccf1d,participant,hcpib7dulza9pefs,,,mousedown,,Kakve izgrađene u viktorijansko doba te zgrade su izgrađene??,Te su zgrade izgrađene u viktorijansko doba.,nf,36,,43,,,
,Sequence,flow.Sequence,2_15,,,,,,completion,9534.700000047684,318495.30000019073,318501.8,318535.5,328070.2000000477,328293.80000019073,2024-07-31T20:02:00.690Z,328354.6,2PuMEJFsNx,incremental,anketa,6645cf40bc81b65c5faccf1d,participant,hcpib7dulza9pefs,,,,,Kakve izgrađene u viktorijansko doba te zgrade su izgrađene??,Te su zgrade izgrađene u viktorijansko doba.,nf,36,,43,,,
,context,canvas.Screen,2_16_0_0,,,,,,response,2259.0000001430744,328295.7000000477,328304.1,328354.6,330613.60000014305,330824.5,2024-07-31T20:02:03.221Z,330859.9,2PuMEJFsNx,incremental,anketa,6645cf40bc81b65c5faccf1d,participant,hcpib7dulza9pefs,,,click,,"Što žele da Ivan pripremi, a Nikola da posprema kuću??","Žele da Ivan pripremi juhu, a Nikola da posprema kuću..",csi,26,27,3,,,
,Timer frame,html.Frame,2_16_0,,,,,,,2471.200000190758,328294.90000009537,328304.1,328354.6,330825.80000019073,330826.60000014305,2024-07-31T20:02:03.223Z,330859.9,2PuMEJFsNx,incremental,anketa,6645cf40bc81b65c5faccf1d,participant,hcpib7dulza9pefs,,,,,"Što žele da Ivan pripremi, a Nikola da posprema kuću??","Žele da Ivan pripremi juhu, a Nikola da posprema kuću..",csi,26,27,3,,,
,stimulus,canvas.Screen,2_16_1_0,,,,,,response,4149.200000143028,330828.30000019073,330826.3,330859.9,335009.10000014305,335256.30000019073,2024-07-31T20:02:07.653Z,335332.3,2PuMEJFsNx,incremental,anketa,6645cf40bc81b65c5faccf1d,participant,hcpib7dulza9pefs,,3,click @3,,"Što žele da Ivan pripremi, a Nikola da posprema kuću??","Žele da Ivan pripremi juhu, a Nikola da posprema kuću..",csi,26,27,3,,,
,Timer frame,html.Frame,2_16_1,,,,,,,4397.30000004766,330827.30000019073,330826.3,330859.9,335257.2000000477,335257.80000019073,2024-07-31T20:02:07.654Z,335332.3,2PuMEJFsNx,incremental,anketa,6645cf40bc81b65c5faccf1d,participant,hcpib7dulza9pefs,,,,,"Što žele da Ivan pripremi, a Nikola da posprema kuću??","Žele da Ivan pripremi juhu, a Nikola da posprema kuću..",csi,26,27,3,,,
,Spremanje,canvas.Screen,2_16_2,,,,,,skipped,,335258.5,,,335257.2000000477,335259,2024-07-31T20:02:07.656Z,335332.3,2PuMEJFsNx,incremental,anketa,6645cf40bc81b65c5faccf1d,participant,hcpib7dulza9pefs,,,,,"Što žele da Ivan pripremi, a Nikola da posprema kuću??","Žele da Ivan pripremi juhu, a Nikola da posprema kuću..",csi,26,27,3,,,
,Question form,html.Form,2_16_3,,,,,,skipped,,335259.60000014305,,,335257.2000000477,335260.5,2024-07-31T20:02:07.657Z,335332.3,2PuMEJFsNx,incremental,anketa,6645cf40bc81b65c5faccf1d,participant,hcpib7dulza9pefs,,,,,"Što žele da Ivan pripremi, a Nikola da posprema kuću??","Žele da Ivan pripremi juhu, a Nikola da posprema kuću..",csi,26,27,3,,,
,Answer indication,canvas.Screen,2_16_4,,,,,,skipped,,335266.5,,,335257.2000000477,335267.40000009537,2024-07-31T20:02:07.664Z,335332.3,2PuMEJFsNx,incremental,anketa,6645cf40bc81b65c5faccf1d,participant,hcpib7dulza9pefs,,,,,"Što žele da Ivan pripremi, a Nikola da posprema kuću??","Žele da Ivan pripremi juhu, a Nikola da posprema kuću..",csi,26,27,3,,,
,inter-stimulus,canvas.Screen,2_16_5,,,,,,response,701.9000000476954,335268.40000009537,335265.1,335332.3,336034.2000000477,336281.5,2024-07-31T20:02:08.678Z,336324.4,2PuMEJFsNx,incremental,anketa,6645cf40bc81b65c5faccf1d,participant,hcpib7dulza9pefs,,,mousedown,,"Što žele da Ivan pripremi, a Nikola da posprema kuću??","Žele da Ivan pripremi juhu, a Nikola da posprema kuću..",csi,26,27,3,,,
,Sequence,flow.Sequence,2_16,,,,,,completion,7679.600000047707,328294.60000014305,328304.1,328354.6,336034.2000000477,336282.90000009537,2024-07-31T20:02:08.679Z,336324.4,2PuMEJFsNx,incremental,anketa,6645cf40bc81b65c5faccf1d,participant,hcpib7dulza9pefs,,,,,"Što žele da Ivan pripremi, a Nikola da posprema kuću??","Žele da Ivan pripremi juhu, a Nikola da posprema kuću..",csi,26,27,3,,,
,context,canvas.Screen,2_17_0_0,,,,,,response,3084.4000001907116,336284.40000009537,336290.7,336324.4,339408.80000019073,339572,2024-07-31T20:02:11.969Z,339636.4,2PuMEJFsNx,incremental,anketa,6645cf40bc81b65c5faccf1d,participant,hcpib7dulza9pefs,,,click,,"Oni su se svađali navečer, ali ujutro su sve pritužbe već bile zaboravljene..","Navečer su se svađali, ali ujutro su sve pritužbe već bile zaboravljene..",gf,44,40,48,,,
,Timer frame,html.Frame,2_17_0,,,,,,,3248.500000095344,336283.7000000477,336290.7,336324.4,339572.90000009537,339573.7000000477,2024-07-31T20:02:11.970Z,339636.4,2PuMEJFsNx,incremental,anketa,6645cf40bc81b65c5faccf1d,participant,hcpib7dulza9pefs,,,,,"Oni su se svađali navečer, ali ujutro su sve pritužbe već bile zaboravljene..","Navečer su se svađali, ali ujutro su sve pritužbe već bile zaboravljene..",gf,44,40,48,,,
,stimulus,canvas.Screen,2_17_1_0,,,,,,response,3644.5999999999767,339575.2000000477,339552.4,339636.4,343281,343504.60000014305,2024-07-31T20:02:15.901Z,343553.9,2PuMEJFsNx,incremental,anketa,6645cf40bc81b65c5faccf1d,participant,hcpib7dulza9pefs,,6,click @6,,"Oni su se svađali navečer, ali ujutro su sve pritužbe već bile zaboravljene..","Navečer su se svađali, ali ujutro su sve pritužbe već bile zaboravljene..",gf,44,40,48,,,
,Timer frame,html.Frame,2_17_1,,,,,,,3869.200000143028,339574.5,339552.4,339636.4,343505.60000014305,343506.40000009537,2024-07-31T20:02:15.903Z,343553.9,2PuMEJFsNx,incremental,anketa,6645cf40bc81b65c5faccf1d,participant,hcpib7dulza9pefs,,,,,"Oni su se svađali navečer, ali ujutro su sve pritužbe već bile zaboravljene..","Navečer su se svađali, ali ujutro su sve pritužbe već bile zaboravljene..",gf,44,40,48,,,
,Spremanje,canvas.Screen,2_17_2,,,,,,skipped,,343507,,,343505.60000014305,343507.60000014305,2024-07-31T20:02:15.904Z,343553.9,2PuMEJFsNx,incremental,anketa,6645cf40bc81b65c5faccf1d,participant,hcpib7dulza9pefs,,,,,"Oni su se svađali navečer, ali ujutro su sve pritužbe već bile zaboravljene..","Navečer su se svađali, ali ujutro su sve pritužbe već bile zaboravljene..",gf,44,40,48,,,
,Question form,html.Form,2_17_3,,,,,,skipped,,343508.10000014305,,,343505.60000014305,343508.80000019073,2024-07-31T20:02:15.905Z,343553.9,2PuMEJFsNx,incremental,anketa,6645cf40bc81b65c5faccf1d,participant,hcpib7dulza9pefs,,,,,"Oni su se svađali navečer, ali ujutro su sve pritužbe već bile zaboravljene..","Navečer su se svađali, ali ujutro su sve pritužbe već bile zaboravljene..",gf,44,40,48,,,
,Answer indication,canvas.Screen,2_17_4,,,,,,skipped,,343515.60000014305,,,343505.60000014305,343516.40000009537,2024-07-31T20:02:15.913Z,343553.9,2PuMEJFsNx,incremental,anketa,6645cf40bc81b65c5faccf1d,participant,hcpib7dulza9pefs,,,,,"Oni su se svađali navečer, ali ujutro su sve pritužbe već bile zaboravljene..","Navečer su se svađali, ali ujutro su sve pritužbe već bile zaboravljene..",gf,44,40,48,,,
,inter-stimulus,canvas.Screen,2_17_5,,,,,,response,724.0000000953441,343516.80000019073,343503.5,343553.9,344277.90000009537,344515.2000000477,2024-07-31T20:02:16.912Z,344562.8,2PuMEJFsNx,incremental,anketa,6645cf40bc81b65c5faccf1d,participant,hcpib7dulza9pefs,,,mousedown,,"Oni su se svađali navečer, ali ujutro su sve pritužbe već bile zaboravljene..","Navečer su se svađali, ali ujutro su sve pritužbe već bile zaboravljene..",gf,44,40,48,,,
,Sequence,flow.Sequence,2_17,,,,,,completion,7953.500000095344,336283.5,336290.7,336324.4,344277.90000009537,344515.80000019073,2024-07-31T20:02:16.912Z,344562.8,2PuMEJFsNx,incremental,anketa,6645cf40bc81b65c5faccf1d,participant,hcpib7dulza9pefs,,,,,"Oni su se svađali navečer, ali ujutro su sve pritužbe već bile zaboravljene..","Navečer su se svađali, ali ujutro su sve pritužbe već bile zaboravljene..",gf,44,40,48,,,
,context,canvas.Screen,2_18_0_0,,,,,,response,1829.9000000476954,344516.40000009537,344529.1,344562.8,346392.7000000477,346605.40000009537,2024-07-31T20:02:19.002Z,346647.8,2PuMEJFsNx,incremental,anketa,6645cf40bc81b65c5faccf1d,participant,hcpib7dulza9pefs,,,click,,Tko je jučer susjedu ukrao kobasicu?,Jučer je riđa mačka susjedu ukrala kobasicu.,gf,,,50,KOBASICU; KOBASICA,Što je ukrala mačka?,
,Timer frame,html.Frame,2_18_0,,,,,,,2043.7000000000116,344516.2000000477,344529.1,344562.8,346606.5,346607.30000019073,2024-07-31T20:02:19.004Z,346647.8,2PuMEJFsNx,incremental,anketa,6645cf40bc81b65c5faccf1d,participant,hcpib7dulza9pefs,,,,,Tko je jučer susjedu ukrao kobasicu?,Jučer je riđa mačka susjedu ukrala kobasicu.,gf,,,50,KOBASICU; KOBASICA,Što je ukrala mačka?,
,stimulus,canvas.Screen,2_18_1_0,,,,,,response,1575.8000001430628,346609,346614.1,346647.8,348223.60000014305,348435.30000019073,2024-07-31T20:02:20.832Z,348497.3,2PuMEJFsNx,incremental,anketa,6645cf40bc81b65c5faccf1d,participant,hcpib7dulza9pefs,,7,click @7,,Tko je jučer susjedu ukrao kobasicu?,Jučer je riđa mačka susjedu ukrala kobasicu.,gf,,,50,KOBASICU; KOBASICA,Što je ukrala mačka?,
,Timer frame,html.Frame,2_18_1,,,,,,,1788.5000001907465,346608.2000000477,346614.1,346647.8,348436.30000019073,348437.10000014305,2024-07-31T20:02:20.834Z,348497.3,2PuMEJFsNx,incremental,anketa,6645cf40bc81b65c5faccf1d,participant,hcpib7dulza9pefs,,,,,Tko je jučer susjedu ukrao kobasicu?,Jučer je riđa mačka susjedu ukrala kobasicu.,gf,,,50,KOBASICU; KOBASICA,Što je ukrala mačka?,
,Spremanje,canvas.Screen,2_18_2,,,,,,response,644.8000001430628,348437.7000000477,348446.9,348497.3,349142.10000014305,349345.80000019073,2024-07-31T20:02:21.742Z,349371.7,2PuMEJFsNx,incremental,anketa,6645cf40bc81b65c5faccf1d,participant,hcpib7dulza9pefs,,,mousedown,,Tko je jučer susjedu ukrao kobasicu?,Jučer je riđa mačka susjedu ukrala kobasicu.,gf,,,50,KOBASICU; KOBASICA,Što je ukrala mačka?,
,Question form,html.Form,2_18_3,,,,,,form submission,7033.4000001430395,349346.2000000477,349354.9,349371.7,356405.10000014305,356405.30000019073,2024-07-31T20:02:28.802Z,356433.4,2PuMEJFsNx,incremental,anketa,6645cf40bc81b65c5faccf1d,participant,hcpib7dulza9pefs,,,,susjedovu kobasicu,Tko je jučer susjedu ukrao kobasicu?,Jučer je riđa mačka susjedu ukrala kobasicu.,gf,,,50,KOBASICU; KOBASICA,Što je ukrala mačka?,
,Answer indication,canvas.Screen,2_18_4,,,,,,response,4117.700000143028,356406.5,356416.6,356433.4,360551.10000014305,360786.30000019073,2024-07-31T20:02:33.183Z,360855.4,2PuMEJFsNx,incremental,anketa,6645cf40bc81b65c5faccf1d,participant,hcpib7dulza9pefs,,,mousedown,,Tko je jučer susjedu ukrao kobasicu?,Jučer je riđa mačka susjedu ukrala kobasicu.,gf,,,50,KOBASICU; KOBASICA,Što je ukrala mačka?,
,inter-stimulus,canvas.Screen,2_18_5,,,,,,response,3107.8000000476604,360787.5,360788.1,360855.4,363963.2000000477,364184.60000014305,2024-07-31T20:02:36.581Z,364218.2,2PuMEJFsNx,incremental,anketa,6645cf40bc81b65c5faccf1d,participant,hcpib7dulza9pefs,,,mousedown,,Tko je jučer susjedu ukrao kobasicu?,Jučer je riđa mačka susjedu ukrala kobasicu.,gf,,,50,KOBASICU; KOBASICA,Što je ukrala mačka?,
,Sequence,flow.Sequence,2_18,,,,,,completion,19400.400000047695,344516.10000014305,344529.1,344562.8,363963.2000000477,364186.60000014305,2024-07-31T20:02:36.583Z,364218.2,2PuMEJFsNx,incremental,anketa,6645cf40bc81b65c5faccf1d,participant,hcpib7dulza9pefs,,,,,Tko je jučer susjedu ukrao kobasicu?,Jučer je riđa mačka susjedu ukrala kobasicu.,gf,,,50,KOBASICU; KOBASICA,Što je ukrala mačka?,
,context,canvas.Screen,2_19_0_0,,,,,,response,2650.2999999999884,364188.7000000477,364184.6,364218.2,366868.5,367112.30000019073,2024-07-31T20:02:39.509Z,367177.3,2PuMEJFsNx,incremental,anketa,6645cf40bc81b65c5faccf1d,participant,hcpib7dulza9pefs,,,click,,Vjerojatno je tu lijepa nekad bila crkva.,Vjerojatno je tu nekad bila lijepa crkva.,lbc,,,36,,,
,Timer frame,html.Frame,2_19_0,,,,,,,2894.9000001430395,364187.80000019073,364184.6,364218.2,367113.10000014305,367113.90000009537,2024-07-31T20:02:39.510Z,367177.3,2PuMEJFsNx,incremental,anketa,6645cf40bc81b65c5faccf1d,participant,hcpib7dulza9pefs,,,,,Vjerojatno je tu lijepa nekad bila crkva.,Vjerojatno je tu nekad bila lijepa crkva.,lbc,,,36,,,
,stimulus,canvas.Screen,2_19_1_0,,,,,,response,5016.400000047695,367115.30000019073,367110,367177.3,372193.7000000477,372440.5,2024-07-31T20:02:44.837Z,372490.3,2PuMEJFsNx,incremental,anketa,6645cf40bc81b65c5faccf1d,participant,hcpib7dulza9pefs,,4,click @4,,Vjerojatno je tu lijepa nekad bila crkva.,Vjerojatno je tu nekad bila lijepa crkva.,lbc,,,36,,,
,Timer frame,html.Frame,2_19_1,,,,,,,5264.200000000012,367114.5,367110,367177.3,372441.5,372442.40000009537,2024-07-31T20:02:44.839Z,372490.3,2PuMEJFsNx,incremental,anketa,6645cf40bc81b65c5faccf1d,participant,hcpib7dulza9pefs,,,,,Vjerojatno je tu lijepa nekad bila crkva.,Vjerojatno je tu nekad bila lijepa crkva.,lbc,,,36,,,
,Spremanje,canvas.Screen,2_19_2,,,,,,skipped,,372442.90000009537,,,372441.5,372443.5,2024-07-31T20:02:44.840Z,372490.3,2PuMEJFsNx,incremental,anketa,6645cf40bc81b65c5faccf1d,participant,hcpib7dulza9pefs,,,,,Vjerojatno je tu lijepa nekad bila crkva.,Vjerojatno je tu nekad bila lijepa crkva.,lbc,,,36,,,
,Question form,html.Form,2_19_3,,,,,,skipped,,372444.2000000477,,,372441.5,372444.80000019073,2024-07-31T20:02:44.841Z,372490.3,2PuMEJFsNx,incremental,anketa,6645cf40bc81b65c5faccf1d,participant,hcpib7dulza9pefs,,,,,Vjerojatno je tu lijepa nekad bila crkva.,Vjerojatno je tu nekad bila lijepa crkva.,lbc,,,36,,,
,Answer indication,canvas.Screen,2_19_4,,,,,,skipped,,372452.40000009537,,,372441.5,372453.2000000477,2024-07-31T20:02:44.850Z,372490.3,2PuMEJFsNx,incremental,anketa,6645cf40bc81b65c5faccf1d,participant,hcpib7dulza9pefs,,,,,Vjerojatno je tu lijepa nekad bila crkva.,Vjerojatno je tu nekad bila lijepa crkva.,lbc,,,36,,,
,inter-stimulus,canvas.Screen,2_19_5,,,,,,response,2276.600000095379,372454,372439.9,372490.3,374766.90000009537,374975.40000009537,2024-07-31T20:02:47.372Z,,2PuMEJFsNx,incremental,anketa,6645cf40bc81b65c5faccf1d,participant,hcpib7dulza9pefs,,,mousedown,,Vjerojatno je tu lijepa nekad bila crkva.,Vjerojatno je tu nekad bila lijepa crkva.,lbc,,,36,,,
,Sequence,flow.Sequence,2_19,,,,,,completion,10548.700000095356,364187.5,364184.6,364218.2,374766.90000009537,374977.5,2024-07-31T20:02:47.374Z,,2PuMEJFsNx,incremental,anketa,6645cf40bc81b65c5faccf1d,participant,hcpib7dulza9pefs,,,,,Vjerojatno je tu lijepa nekad bila crkva.,Vjerojatno je tu nekad bila lijepa crkva.,lbc,,,36,,,
,context,canvas.Screen,2_20_0_0,,,,,,response,2401.5999999999767,374979.40000009537,374978.9,375029.4,377431,377640.7000000477,2024-07-31T20:02:50.037Z,377685.7,2PuMEJFsNx,incremental,anketa,6645cf40bc81b65c5faccf1d,participant,hcpib7dulza9pefs,,,click,,Odakle si pješke ići prema Zadru?,Ideš pješke od Splita prema Zadru.,nf,,,44,,,
,Timer frame,html.Frame,2_20_0,,,,,,,2612.3000000476604,374978.7000000477,374978.9,375029.4,377641.7000000477,377642.30000019073,2024-07-31T20:02:50.039Z,377685.7,2PuMEJFsNx,incremental,anketa,6645cf40bc81b65c5faccf1d,participant,hcpib7dulza9pefs,,,,,Odakle si pješke ići prema Zadru?,Ideš pješke od Splita prema Zadru.,nf,,,44,,,
,stimulus,canvas.Screen,2_20_1_0,,,,,,response,2665.2999999999884,377643.7000000477,377635.3,377685.7,380351,380609,2024-07-31T20:02:53.006Z,380678.6,2PuMEJFsNx,incremental,anketa,6645cf40bc81b65c5faccf1d,participant,hcpib7dulza9pefs,,1,click @1,,Odakle si pješke ići prema Zadru?,Ideš pješke od Splita prema Zadru.,nf,,,44,,,
,Timer frame,html.Frame,2_20_1,,,,,,,2924.200000095356,377643.10000014305,377635.3,377685.7,380609.90000009537,380610.5,2024-07-31T20:02:53.007Z,380678.6,2PuMEJFsNx,incremental,anketa,6645cf40bc81b65c5faccf1d,participant,hcpib7dulza9pefs,,,,,Odakle si pješke ići prema Zadru?,Ideš pješke od Splita prema Zadru.,nf,,,44,,,
,Spremanje,canvas.Screen,2_20_2,,,,,,skipped,,380611.2000000477,,,380609.90000009537,380611.7000000477,2024-07-31T20:02:53.008Z,380678.6,2PuMEJFsNx,incremental,anketa,6645cf40bc81b65c5faccf1d,participant,hcpib7dulza9pefs,,,,,Odakle si pješke ići prema Zadru?,Ideš pješke od Splita prema Zadru.,nf,,,44,,,
,Question form,html.Form,2_20_3,,,,,,skipped,,380612.60000014305,,,380609.90000009537,380613.30000019073,2024-07-31T20:02:53.010Z,380678.6,2PuMEJFsNx,incremental,anketa,6645cf40bc81b65c5faccf1d,participant,hcpib7dulza9pefs,,,,,Odakle si pješke ići prema Zadru?,Ideš pješke od Splita prema Zadru.,nf,,,44,,,
,Answer indication,canvas.Screen,2_20_4,,,,,,skipped,,380618.80000019073,,,380609.90000009537,380619.5,2024-07-31T20:02:53.016Z,380678.6,2PuMEJFsNx,incremental,anketa,6645cf40bc81b65c5faccf1d,participant,hcpib7dulza9pefs,,,,,Odakle si pješke ići prema Zadru?,Ideš pješke od Splita prema Zadru.,nf,,,44,,,
,inter-stimulus,canvas.Screen,2_20_5,,,,,,response,743.8000000953907,380620.10000014305,380611.3,380678.6,381422.40000009537,381650.80000019073,2024-07-31T20:02:54.047Z,381704.2,2PuMEJFsNx,incremental,anketa,6645cf40bc81b65c5faccf1d,participant,hcpib7dulza9pefs,,,mousedown,,Odakle si pješke ići prema Zadru?,Ideš pješke od Splita prema Zadru.,nf,,,44,,,
,Sequence,flow.Sequence,2_20,,,,,,completion,6393.000000095344,374978.30000019073,374978.9,375029.4,381422.40000009537,381653.2000000477,2024-07-31T20:02:54.050Z,381704.2,2PuMEJFsNx,incremental,anketa,6645cf40bc81b65c5faccf1d,participant,hcpib7dulza9pefs,,,,,Odakle si pješke ići prema Zadru?,Ideš pješke od Splita prema Zadru.,nf,,,44,,,
,context,canvas.Screen,2_21_0_0,,,,,,response,1615.4000001430395,381655.2000000477,381653.6,381704.2,383319.60000014305,383526.80000019073,2024-07-31T20:02:55.923Z,383587.2,2PuMEJFsNx,incremental,anketa,6645cf40bc81b65c5faccf1d,participant,hcpib7dulza9pefs,,,click,,Za kim su banditi imali pitanja?,Ti banditi su imali pitanja za mene.,nf,,,40,,,
,Timer frame,html.Frame,2_21_0,,,,,,,1823.4000001430395,381654.40000009537,381653.6,381704.2,383527.60000014305,383528.30000019073,2024-07-31T20:02:55.925Z,383587.2,2PuMEJFsNx,incremental,anketa,6645cf40bc81b65c5faccf1d,participant,hcpib7dulza9pefs,,,,,Za kim su banditi imali pitanja?,Ti banditi su imali pitanja za mene.,nf,,,40,,,
,stimulus,canvas.Screen,2_21_1_0,,,,,,response,1595.2000000953558,383529.5,383520.1,383587.2,385182.40000009537,385411.7000000477,2024-07-31T20:02:57.808Z,385453.6,2PuMEJFsNx,incremental,anketa,6645cf40bc81b65c5faccf1d,participant,hcpib7dulza9pefs,,1,click @1,,Za kim su banditi imali pitanja?,Ti banditi su imali pitanja za mene.,nf,,,40,,,
,Timer frame,html.Frame,2_21_1,,,,,,,1825.500000047672,383528.90000009537,383520.1,383587.2,385412.7000000477,385413.5,2024-07-31T20:02:57.810Z,385453.6,2PuMEJFsNx,incremental,anketa,6645cf40bc81b65c5faccf1d,participant,hcpib7dulza9pefs,,,,,Za kim su banditi imali pitanja?,Ti banditi su imali pitanja za mene.,nf,,,40,,,
,Spremanje,canvas.Screen,2_21_2,,,,,,skipped,,385414.40000009537,,,385412.7000000477,385415,2024-07-31T20:02:57.811Z,385453.6,2PuMEJFsNx,incremental,anketa,6645cf40bc81b65c5faccf1d,participant,hcpib7dulza9pefs,,,,,Za kim su banditi imali pitanja?,Ti banditi su imali pitanja za mene.,nf,,,40,,,
,Question form,html.Form,2_21_3,,,,,,skipped,,385415.60000014305,,,385412.7000000477,385416.40000009537,2024-07-31T20:02:57.813Z,385453.6,2PuMEJFsNx,incremental,anketa,6645cf40bc81b65c5faccf1d,participant,hcpib7dulza9pefs,,,,,Za kim su banditi imali pitanja?,Ti banditi su imali pitanja za mene.,nf,,,40,,,
,Answer indication,canvas.Screen,2_21_4,,,,,,skipped,,385424.40000009537,,,385412.7000000477,385425.10000014305,2024-07-31T20:02:57.822Z,385453.6,2PuMEJFsNx,incremental,anketa,6645cf40bc81b65c5faccf1d,participant,hcpib7dulza9pefs,,,,,Za kim su banditi imali pitanja?,Ti banditi su imali pitanja za mene.,nf,,,40,,,
,inter-stimulus,canvas.Screen,2_21_5,,,,,,response,760.600000047707,385425.5,385403.2,385453.6,386214.2000000477,386454.80000019073,2024-07-31T20:02:58.851Z,386496,2PuMEJFsNx,incremental,anketa,6645cf40bc81b65c5faccf1d,participant,hcpib7dulza9pefs,,,mousedown,,Za kim su banditi imali pitanja?,Ti banditi su imali pitanja za mene.,nf,,,40,,,
,Sequence,flow.Sequence,2_21,,,,,,completion,4510.000000047672,381654.10000014305,381653.6,381704.2,386214.2000000477,386455.80000019073,2024-07-31T20:02:58.852Z,386496,2PuMEJFsNx,incremental,anketa,6645cf40bc81b65c5faccf1d,participant,hcpib7dulza9pefs,,,,,Za kim su banditi imali pitanja?,Ti banditi su imali pitanja za mene.,nf,,,40,,,
,context,canvas.Screen,2_22_0_0,,,,,,response,2151.2000000476837,386456.40000009537,386462.4,386496,388647.2000000477,388883.5,2024-07-31T20:03:01.280Z,388934,2PuMEJFsNx,incremental,anketa,6645cf40bc81b65c5faccf1d,participant,hcpib7dulza9pefs,,,click,,Što mama hvali kćer koja je u školi dobila?,Mama hvali kćer koja je u školi dobila peticu.,cnp,,,11,,,
,Timer frame,html.Frame,2_22_0,,,,,,,2388,386456.10000014305,386462.4,386496,388884,388884.30000019073,2024-07-31T20:03:01.281Z,388934,2PuMEJFsNx,incremental,anketa,6645cf40bc81b65c5faccf1d,participant,hcpib7dulza9pefs,,,,,Što mama hvali kćer koja je u školi dobila?,Mama hvali kćer koja je u školi dobila peticu.,cnp,,,11,,,
,stimulus,canvas.Screen,2_22_1_0,,,,,,response,1874.4000000953674,388884.90000009537,388883.5,388934,390808.40000009537,391027.5,2024-07-31T20:03:03.424Z,391069.3,2PuMEJFsNx,incremental,anketa,6645cf40bc81b65c5faccf1d,participant,hcpib7dulza9pefs,,1,click @1,,Što mama hvali kćer koja je u školi dobila?,Mama hvali kćer koja je u školi dobila peticu.,cnp,,,11,,,
,Timer frame,html.Frame,2_22_1,,,,,,,2094.300000190735,388884.60000014305,388883.5,388934,391028.30000019073,391029,2024-07-31T20:03:03.426Z,391069.3,2PuMEJFsNx,incremental,anketa,6645cf40bc81b65c5faccf1d,participant,hcpib7dulza9pefs,,,,,Što mama hvali kćer koja je u školi dobila?,Mama hvali kćer koja je u školi dobila peticu.,cnp,,,11,,,
,Spremanje,canvas.Screen,2_22_2,,,,,,skipped,,391029.40000009537,,,391028.30000019073,391029.80000019073,2024-07-31T20:03:03.426Z,391069.3,2PuMEJFsNx,incremental,anketa,6645cf40bc81b65c5faccf1d,participant,hcpib7dulza9pefs,,,,,Što mama hvali kćer koja je u školi dobila?,Mama hvali kćer koja je u školi dobila peticu.,cnp,,,11,,,
,Question form,html.Form,2_22_3,,,,,,skipped,,391030.2000000477,,,391028.30000019073,391030.60000014305,2024-07-31T20:03:03.427Z,391069.3,2PuMEJFsNx,incremental,anketa,6645cf40bc81b65c5faccf1d,participant,hcpib7dulza9pefs,,,,,Što mama hvali kćer koja je u školi dobila?,Mama hvali kćer koja je u školi dobila peticu.,cnp,,,11,,,
,Answer indication,canvas.Screen,2_22_4,,,,,,skipped,,391036,,,391028.30000019073,391036.7000000477,2024-07-31T20:03:03.433Z,391069.3,2PuMEJFsNx,incremental,anketa,6645cf40bc81b65c5faccf1d,participant,hcpib7dulza9pefs,,,,,Što mama hvali kćer koja je u školi dobila?,Mama hvali kćer koja je u školi dobila peticu.,cnp,,,11,,,
,inter-stimulus,canvas.Screen,2_22_5,,,,,,response,1239.0000001907465,391037.30000019073,391035.7,391069.3,392308.30000019073,392548.40000009537,2024-07-31T20:03:04.945Z,392599.3,2PuMEJFsNx,incremental,anketa,6645cf40bc81b65c5faccf1d,participant,hcpib7dulza9pefs,,,mousedown,,Što mama hvali kćer koja je u školi dobila?,Mama hvali kćer koja je u školi dobila peticu.,cnp,,,11,,,
,Sequence,flow.Sequence,2_22,,,,,,completion,5812.300000190735,386456.10000014305,386462.4,386496,392308.30000019073,392550.40000009537,2024-07-31T20:03:04.947Z,392599.3,2PuMEJFsNx,incremental,anketa,6645cf40bc81b65c5faccf1d,participant,hcpib7dulza9pefs,,,,,Što mama hvali kćer koja je u školi dobila?,Mama hvali kćer koja je u školi dobila peticu.,cnp,,,11,,,
,context,canvas.Screen,2_23_0_0,,,,,,response,2459.600000095379,392552.2000000477,392548.9,392599.3,395058.90000009537,395272,2024-07-31T20:03:07.669Z,395323.2,2PuMEJFsNx,incremental,anketa,6645cf40bc81b65c5faccf1d,participant,hcpib7dulza9pefs,,,click,,Tko se zaljubio u djevojku kad je bio dijete?,"Kad smo bili djeca, moj prijatelj i ja smo se zaljubili u istu djevojku..",gf,,33,52,,,
,Timer frame,html.Frame,2_23_0,,,,,,,2673.7000000000116,392551.40000009537,392548.9,392599.3,395273,395273.60000014305,2024-07-31T20:03:07.670Z,395323.2,2PuMEJFsNx,incremental,anketa,6645cf40bc81b65c5faccf1d,participant,hcpib7dulza9pefs,,,,,Tko se zaljubio u djevojku kad je bio dijete?,"Kad smo bili djeca, moj prijatelj i ja smo se zaljubili u istu djevojku..",gf,,33,52,,,
,stimulus,canvas.Screen,2_23_1_0,,,,,,response,3004.500000047672,395275,395272.7,395323.2,398327.7000000477,398541.80000019073,2024-07-31T20:03:10.938Z,398585,2PuMEJFsNx,incremental,anketa,6645cf40bc81b65c5faccf1d,participant,hcpib7dulza9pefs,,5,click @5,,Tko se zaljubio u djevojku kad je bio dijete?,"Kad smo bili djeca, moj prijatelj i ja smo se zaljubili u istu djevojku..",gf,,33,52,,,
,Timer frame,html.Frame,2_23_1,,,,,,,3219.700000095356,395274.2000000477,395272.7,395323.2,398542.90000009537,398543.60000014305,2024-07-31T20:03:10.940Z,398585,2PuMEJFsNx,incremental,anketa,6645cf40bc81b65c5faccf1d,participant,hcpib7dulza9pefs,,,,,Tko se zaljubio u djevojku kad je bio dijete?,"Kad smo bili djeca, moj prijatelj i ja smo se zaljubili u istu djevojku..",gf,,33,52,,,
,Spremanje,canvas.Screen,2_23_2,,,,,,skipped,,398544.40000009537,,,398542.90000009537,398545,2024-07-31T20:03:10.941Z,398585,2PuMEJFsNx,incremental,anketa,6645cf40bc81b65c5faccf1d,participant,hcpib7dulza9pefs,,,,,Tko se zaljubio u djevojku kad je bio dijete?,"Kad smo bili djeca, moj prijatelj i ja smo se zaljubili u istu djevojku..",gf,,33,52,,,
,Question form,html.Form,2_23_3,,,,,,skipped,,398545.60000014305,,,398542.90000009537,398546.2000000477,2024-07-31T20:03:10.943Z,398585,2PuMEJFsNx,incremental,anketa,6645cf40bc81b65c5faccf1d,participant,hcpib7dulza9pefs,,,,,Tko se zaljubio u djevojku kad je bio dijete?,"Kad smo bili djeca, moj prijatelj i ja smo se zaljubili u istu djevojku..",gf,,33,52,,,
,Answer indication,canvas.Screen,2_23_4,,,,,,skipped,,398552.90000009537,,,398542.90000009537,398553.60000014305,2024-07-31T20:03:10.950Z,398585,2PuMEJFsNx,incremental,anketa,6645cf40bc81b65c5faccf1d,participant,hcpib7dulza9pefs,,,,,Tko se zaljubio u djevojku kad je bio dijete?,"Kad smo bili djeca, moj prijatelj i ja smo se zaljubili u istu djevojku..",gf,,33,52,,,
,inter-stimulus,canvas.Screen,2_23_5,,,,,,response,1662.8000001907349,398554.5,398534.6,398585,400247.80000019073,400471.80000019073,2024-07-31T20:03:12.868Z,400518.6,2PuMEJFsNx,incremental,anketa,6645cf40bc81b65c5faccf1d,participant,hcpib7dulza9pefs,,,mousedown,,Tko se zaljubio u djevojku kad je bio dijete?,"Kad smo bili djeca, moj prijatelj i ja smo se zaljubili u istu djevojku..",gf,,33,52,,,
,Sequence,flow.Sequence,2_23,,,,,,completion,7648.5000001907465,392551.10000014305,392548.9,392599.3,400247.80000019073,400473.60000014305,2024-07-31T20:03:12.870Z,400518.6,2PuMEJFsNx,incremental,anketa,6645cf40bc81b65c5faccf1d,participant,hcpib7dulza9pefs,,,,,Tko se zaljubio u djevojku kad je bio dijete?,"Kad smo bili djeca, moj prijatelj i ja smo se zaljubili u istu djevojku..",gf,,33,52,,,
,context,canvas.Screen,2_24_0_0,,,,,,response,1775.0000001430744,400475.2000000477,400484.9,400518.6,402293.60000014305,402522.60000014305,2024-07-31T20:03:14.919Z,402569.8,2PuMEJFsNx,incremental,anketa,6645cf40bc81b65c5faccf1d,participant,hcpib7dulza9pefs,,,click,,Kakva je kraj mene biciklom prošla djevojka?,Kraj mene je biciklom prošla vrlo lijepa djevojka.,ai,,,27,,,
,Timer frame,html.Frame,2_24_0,,,,,,,2005.0000001430744,400474.7000000477,400484.9,400518.6,402523.60000014305,402524.5,2024-07-31T20:03:14.921Z,402569.8,2PuMEJFsNx,incremental,anketa,6645cf40bc81b65c5faccf1d,participant,hcpib7dulza9pefs,,,,,Kakva je kraj mene biciklom prošla djevojka?,Kraj mene je biciklom prošla vrlo lijepa djevojka.,ai,,,27,,,
,stimulus,canvas.Screen,2_24_1_0,,,,,,response,4244.100000095379,402526,402536.3,402569.8,406813.90000009537,407054.90000009537,2024-07-31T20:03:19.451Z,407126.3,2PuMEJFsNx,incremental,anketa,6645cf40bc81b65c5faccf1d,participant,hcpib7dulza9pefs,,3,click @3,,Kakva je kraj mene biciklom prošla djevojka?,Kraj mene je biciklom prošla vrlo lijepa djevojka.,ai,,,27,,,
,Timer frame,html.Frame,2_24_1,,,,,,,4485.800000143063,402525.2000000477,402536.3,402569.8,407055.60000014305,407056.40000009537,2024-07-31T20:03:19.453Z,407126.3,2PuMEJFsNx,incremental,anketa,6645cf40bc81b65c5faccf1d,participant,hcpib7dulza9pefs,,,,,Kakva je kraj mene biciklom prošla djevojka?,Kraj mene je biciklom prošla vrlo lijepa djevojka.,ai,,,27,,,
,Spremanje,canvas.Screen,2_24_2,,,,,,skipped,,407057,,,407055.60000014305,407057.7000000477,2024-07-31T20:03:19.454Z,407126.3,2PuMEJFsNx,incremental,anketa,6645cf40bc81b65c5faccf1d,participant,hcpib7dulza9pefs,,,,,Kakva je kraj mene biciklom prošla djevojka?,Kraj mene je biciklom prošla vrlo lijepa djevojka.,ai,,,27,,,
,Question form,html.Form,2_24_3,,,,,,skipped,,407058.30000019073,,,407055.60000014305,407059,2024-07-31T20:03:19.455Z,407126.3,2PuMEJFsNx,incremental,anketa,6645cf40bc81b65c5faccf1d,participant,hcpib7dulza9pefs,,,,,Kakva je kraj mene biciklom prošla djevojka?,Kraj mene je biciklom prošla vrlo lijepa djevojka.,ai,,,27,,,
,Answer indication,canvas.Screen,2_24_4,,,,,,skipped,,407064.90000009537,,,407055.60000014305,407065.5,2024-07-31T20:03:19.462Z,407126.3,2PuMEJFsNx,incremental,anketa,6645cf40bc81b65c5faccf1d,participant,hcpib7dulza9pefs,,,,,Kakva je kraj mene biciklom prošla djevojka?,Kraj mene je biciklom prošla vrlo lijepa djevojka.,ai,,,27,,,
,inter-stimulus,canvas.Screen,2_24_5,,,,,,response,194.3000001430628,407066.10000014305,407059,407126.3,407320.60000014305,407575.60000014305,2024-07-31T20:03:19.972Z,407613.8,2PuMEJFsNx,incremental,anketa,6645cf40bc81b65c5faccf1d,participant,hcpib7dulza9pefs,,,mousedown,,Kakva je kraj mene biciklom prošla djevojka?,Kraj mene je biciklom prošla vrlo lijepa djevojka.,ai,,,27,,,
,Sequence,flow.Sequence,2_24,,,,,,completion,6802.000000143074,400474.40000009537,400484.9,400518.6,407320.60000014305,407576.90000009537,2024-07-31T20:03:19.973Z,407613.8,2PuMEJFsNx,incremental,anketa,6645cf40bc81b65c5faccf1d,participant,hcpib7dulza9pefs,,,,,Kakva je kraj mene biciklom prošla djevojka?,Kraj mene je biciklom prošla vrlo lijepa djevojka.,ai,,,27,,,
,context,canvas.Screen,2_25_0_0,,,,,,response,478.8000001430628,407577.80000019073,407580.2,407613.8,408092.60000014305,408299.7000000477,2024-07-31T20:03:20.696Z,408353.7,2PuMEJFsNx,incremental,anketa,6645cf40bc81b65c5faccf1d,participant,hcpib7dulza9pefs,,,click,,Komu tužno je gledati da ljudi i dalje daju novac??,Tužno je gledati da ljudi i dalje daju novac šarlatanima..,si,38,33,19,,,
,Timer frame,html.Frame,2_25_0,,,,,,,686.9000000476954,407577.30000019073,407580.2,407613.8,408300.7000000477,408301.40000009537,2024-07-31T20:03:20.698Z,408353.7,2PuMEJFsNx,incremental,anketa,6645cf40bc81b65c5faccf1d,participant,hcpib7dulza9pefs,,,,,Komu tužno je gledati da ljudi i dalje daju novac??,Tužno je gledati da ljudi i dalje daju novac šarlatanima..,si,38,33,19,,,
,stimulus,canvas.Screen,2_25_1_0,,,,,,response,3017.500000047672,408302.60000014305,408303.2,408353.7,411371.2000000477,411592.60000014305,2024-07-31T20:03:23.989Z,411632.3,2PuMEJFsNx,incremental,anketa,6645cf40bc81b65c5faccf1d,participant,hcpib7dulza9pefs,,2,click @2,,Komu tužno je gledati da ljudi i dalje daju novac??,Tužno je gledati da ljudi i dalje daju novac šarlatanima..,si,38,33,19,,,
,Timer frame,html.Frame,2_25_1,,,,,,,3239.100000190723,408302,408303.2,408353.7,411592.80000019073,411593.10000014305,2024-07-31T20:03:23.990Z,411632.3,2PuMEJFsNx,incremental,anketa,6645cf40bc81b65c5faccf1d,participant,hcpib7dulza9pefs,,,,,Komu tužno je gledati da ljudi i dalje daju novac??,Tužno je gledati da ljudi i dalje daju novac šarlatanima..,si,38,33,19,,,
,Spremanje,canvas.Screen,2_25_2,,,,,,skipped,,411593.2000000477,,,411592.80000019073,411593.40000009537,2024-07-31T20:03:23.990Z,411632.3,2PuMEJFsNx,incremental,anketa,6645cf40bc81b65c5faccf1d,participant,hcpib7dulza9pefs,,,,,Komu tužno je gledati da ljudi i dalje daju novac??,Tužno je gledati da ljudi i dalje daju novac šarlatanima..,si,38,33,19,,,
,Question form,html.Form,2_25_3,,,,,,skipped,,411593.60000014305,,,411592.80000019073,411593.80000019073,2024-07-31T20:03:23.990Z,411632.3,2PuMEJFsNx,incremental,anketa,6645cf40bc81b65c5faccf1d,participant,hcpib7dulza9pefs,,,,,Komu tužno je gledati da ljudi i dalje daju novac??,Tužno je gledati da ljudi i dalje daju novac šarlatanima..,si,38,33,19,,,
,Answer indication,canvas.Screen,2_25_4,,,,,,skipped,,411595.7000000477,,,411592.80000019073,411596,2024-07-31T20:03:23.993Z,411632.3,2PuMEJFsNx,incremental,anketa,6645cf40bc81b65c5faccf1d,participant,hcpib7dulza9pefs,,,,,Komu tužno je gledati da ljudi i dalje daju novac??,Tužno je gledati da ljudi i dalje daju novac šarlatanima..,si,38,33,19,,,
,inter-stimulus,canvas.Screen,2_25_5,,,,,,response,3575.0000001907465,411596.2000000477,411581.9,411632.3,415207.30000019073,415430.60000014305,2024-07-31T20:03:27.827Z,415482.6,2PuMEJFsNx,incremental,anketa,6645cf40bc81b65c5faccf1d,participant,hcpib7dulza9pefs,,,mousedown,,Komu tužno je gledati da ljudi i dalje daju novac??,Tužno je gledati da ljudi i dalje daju novac šarlatanima..,si,38,33,19,,,
,Sequence,flow.Sequence,2_25,,,,,,completion,7593.5000001907465,407577.2000000477,407580.2,407613.8,415207.30000019073,415432.40000009537,2024-07-31T20:03:27.829Z,415482.6,2PuMEJFsNx,incremental,anketa,6645cf40bc81b65c5faccf1d,participant,hcpib7dulza9pefs,,,,,Komu tužno je gledati da ljudi i dalje daju novac??,Tužno je gledati da ljudi i dalje daju novac šarlatanima..,si,38,33,19,,,
,context,canvas.Screen,2_26_0_0,,,,,,response,2413.100000047707,415434.40000009537,415432.1,415482.6,417895.7000000477,418129.5,2024-07-31T20:03:30.526Z,418172.8,2PuMEJFsNx,incremental,anketa,6645cf40bc81b65c5faccf1d,participant,hcpib7dulza9pefs,,,click,,"Kamo da ne odeš gladan, doručkovao si?",Doručkovao si da ne odeš gladan u planine.,ai,,,21,,,
,Timer frame,html.Frame,2_26_0,,,,,,,2647.600000047707,415433.60000014305,415432.1,415482.6,418130.2000000477,418130.60000014305,2024-07-31T20:03:30.527Z,418172.8,2PuMEJFsNx,incremental,anketa,6645cf40bc81b65c5faccf1d,participant,hcpib7dulza9pefs,,,,,"Kamo da ne odeš gladan, doručkovao si?",Doručkovao si da ne odeš gladan u planine.,ai,,,21,,,
,stimulus,canvas.Screen,2_26_1_0,,,,,,response,2476.2000000000116,418131.30000019073,418139.2,418172.8,420649,420885,2024-07-31T20:03:33.282Z,420947,2PuMEJFsNx,incremental,anketa,6645cf40bc81b65c5faccf1d,participant,hcpib7dulza9pefs,,2,click @2,,"Kamo da ne odeš gladan, doručkovao si?",Doručkovao si da ne odeš gladan u planine.,ai,,,21,,,
,Timer frame,html.Frame,2_26_1,,,,,,,2713.100000095379,418130.90000009537,418139.2,418172.8,420885.90000009537,420886.7000000477,2024-07-31T20:03:33.283Z,420947,2PuMEJFsNx,incremental,anketa,6645cf40bc81b65c5faccf1d,participant,hcpib7dulza9pefs,,,,,"Kamo da ne odeš gladan, doručkovao si?",Doručkovao si da ne odeš gladan u planine.,ai,,,21,,,
,Spremanje,canvas.Screen,2_26_2,,,,,,skipped,,420887.40000009537,,,420885.90000009537,420888.10000014305,2024-07-31T20:03:33.285Z,420947,2PuMEJFsNx,incremental,anketa,6645cf40bc81b65c5faccf1d,participant,hcpib7dulza9pefs,,,,,"Kamo da ne odeš gladan, doručkovao si?",Doručkovao si da ne odeš gladan u planine.,ai,,,21,,,
,Question form,html.Form,2_26_3,,,,,,skipped,,420888.80000019073,,,420885.90000009537,420889.5,2024-07-31T20:03:33.286Z,420947,2PuMEJFsNx,incremental,anketa,6645cf40bc81b65c5faccf1d,participant,hcpib7dulza9pefs,,,,,"Kamo da ne odeš gladan, doručkovao si?",Doručkovao si da ne odeš gladan u planine.,ai,,,21,,,
,Answer indication,canvas.Screen,2_26_4,,,,,,skipped,,420897.2000000477,,,420885.90000009537,420897.80000019073,2024-07-31T20:03:33.294Z,420947,2PuMEJFsNx,incremental,anketa,6645cf40bc81b65c5faccf1d,participant,hcpib7dulza9pefs,,,,,"Kamo da ne odeš gladan, doručkovao si?",Doručkovao si da ne odeš gladan u planine.,ai,,,21,,,
,inter-stimulus,canvas.Screen,2_26_5,,,,,,response,813.8000001907349,420898.40000009537,420879.8,420947,421760.80000019073,421996.7000000477,2024-07-31T20:03:34.393Z,422039.9,2PuMEJFsNx,incremental,anketa,6645cf40bc81b65c5faccf1d,participant,hcpib7dulza9pefs,,,mousedown,,"Kamo da ne odeš gladan, doručkovao si?",Doručkovao si da ne odeš gladan u planine.,ai,,,21,,,
,Sequence,flow.Sequence,2_26,,,,,,completion,6278.200000190758,415433.2000000477,415432.1,415482.6,421760.80000019073,421998.60000014305,2024-07-31T20:03:34.395Z,422039.9,2PuMEJFsNx,incremental,anketa,6645cf40bc81b65c5faccf1d,participant,hcpib7dulza9pefs,,,,,"Kamo da ne odeš gladan, doručkovao si?",Doručkovao si da ne odeš gladan u planine.,ai,,,21,,,
,context,canvas.Screen,2_27_0_0,,,,,,response,1915.0000000953441,422000.40000009537,422006.4,422039.9,423954.90000009537,424193,2024-07-31T20:03:36.590Z,424242.5,2PuMEJFsNx,incremental,anketa,6645cf40bc81b65c5faccf1d,participant,hcpib7dulza9pefs,,,click,,Petar i Mara su jučer otišli u kino pogledati dobru komediju..,Jučer su Petar i Mara otišli u kino pogledati dobru komediju..,gf,35,35,46,,,
,Timer frame,html.Frame,2_27_0,,,,,,,2153.5999999999767,421999.60000014305,422006.4,422039.9,424193.5,424194.10000014305,2024-07-31T20:03:36.591Z,424242.5,2PuMEJFsNx,incremental,anketa,6645cf40bc81b65c5faccf1d,participant,hcpib7dulza9pefs,,,,,Petar i Mara su jučer otišli u kino pogledati dobru komediju..,Jučer su Petar i Mara otišli u kino pogledati dobru komediju..,gf,35,35,46,,,
,stimulus,canvas.Screen,2_27_1_0,,,,,,response,4622.900000095367,424194.60000014305,424175.2,424242.5,428865.40000009537,429099,2024-07-31T20:03:41.495Z,429152,2PuMEJFsNx,incremental,anketa,6645cf40bc81b65c5faccf1d,participant,hcpib7dulza9pefs,,7,click @7,,Petar i Mara su jučer otišli u kino pogledati dobru komediju..,Jučer su Petar i Mara otišli u kino pogledati dobru komediju..,gf,35,35,46,,,
,Timer frame,html.Frame,2_27_1,,,,,,,4857.700000047684,424194.30000019073,424175.2,424242.5,429100.2000000477,429101.10000014305,2024-07-31T20:03:41.498Z,429152,2PuMEJFsNx,incremental,anketa,6645cf40bc81b65c5faccf1d,participant,hcpib7dulza9pefs,,,,,Petar i Mara su jučer otišli u kino pogledati dobru komediju..,Jučer su Petar i Mara otišli u kino pogledati dobru komediju..,gf,35,35,46,,,
,Spremanje,canvas.Screen,2_27_2,,,,,,skipped,,429101.80000019073,,,429100.2000000477,429102.5,2024-07-31T20:03:41.499Z,429152,2PuMEJFsNx,incremental,anketa,6645cf40bc81b65c5faccf1d,participant,hcpib7dulza9pefs,,,,,Petar i Mara su jučer otišli u kino pogledati dobru komediju..,Jučer su Petar i Mara otišli u kino pogledati dobru komediju..,gf,35,35,46,,,
,Question form,html.Form,2_27_3,,,,,,skipped,,429103.10000014305,,,429100.2000000477,429103.7000000477,2024-07-31T20:03:41.500Z,429152,2PuMEJFsNx,incremental,anketa,6645cf40bc81b65c5faccf1d,participant,hcpib7dulza9pefs,,,,,Petar i Mara su jučer otišli u kino pogledati dobru komediju..,Jučer su Petar i Mara otišli u kino pogledati dobru komediju..,gf,35,35,46,,,
,Answer indication,canvas.Screen,2_27_4,,,,,,skipped,,429111.60000014305,,,429100.2000000477,429112.40000009537,2024-07-31T20:03:41.509Z,429152,2PuMEJFsNx,incremental,anketa,6645cf40bc81b65c5faccf1d,participant,hcpib7dulza9pefs,,,,,Petar i Mara su jučer otišli u kino pogledati dobru komediju..,Jučer su Petar i Mara otišli u kino pogledati dobru komediju..,gf,35,35,46,,,
,inter-stimulus,canvas.Screen,2_27_5,,,,,,response,1566.7000000476837,429112.80000019073,429101.6,429152,430718.7000000477,430940.60000014305,2024-07-31T20:03:43.337Z,430984.8,2PuMEJFsNx,incremental,anketa,6645cf40bc81b65c5faccf1d,participant,hcpib7dulza9pefs,,,mousedown,,Petar i Mara su jučer otišli u kino pogledati dobru komediju..,Jučer su Petar i Mara otišli u kino pogledati dobru komediju..,gf,35,35,46,,,
,Sequence,flow.Sequence,2_27,,,,,,completion,8678.80000004766,421999.40000009537,422006.4,422039.9,430718.7000000477,430941.80000019073,2024-07-31T20:03:43.338Z,430984.8,2PuMEJFsNx,incremental,anketa,6645cf40bc81b65c5faccf1d,participant,hcpib7dulza9pefs,,,,,Petar i Mara su jučer otišli u kino pogledati dobru komediju..,Jučer su Petar i Mara otišli u kino pogledati dobru komediju..,gf,35,35,46,,,
,context,canvas.Screen,2_28_0_0,,,,,,response,1690.5000001907465,430943.5,430951.1,430984.8,432675.30000019073,432907.30000019073,2024-07-31T20:03:45.304Z,432951.9,2PuMEJFsNx,incremental,anketa,6645cf40bc81b65c5faccf1d,participant,hcpib7dulza9pefs,,,click,,"Koliko čega Luka je zaboravio, on mi je posudio?","Luka je zaboravio, koliko mi je novca posudio.",ai,,,28,,,
,Timer frame,html.Frame,2_28_0,,,,,,,1923.8000001430628,430942.80000019073,430951.1,430984.8,432908.60000014305,432909.7000000477,2024-07-31T20:03:45.306Z,432951.9,2PuMEJFsNx,incremental,anketa,6645cf40bc81b65c5faccf1d,participant,hcpib7dulza9pefs,,,,,"Koliko čega Luka je zaboravio, on mi je posudio?","Luka je zaboravio, koliko mi je novca posudio.",ai,,,28,,,
,stimulus,canvas.Screen,2_28_1_0,,,,,,response,2080.5999999999767,432910.5,432901.5,432951.9,435032.5,435274.40000009537,2024-07-31T20:03:47.671Z,435339.5,2PuMEJFsNx,incremental,anketa,6645cf40bc81b65c5faccf1d,participant,hcpib7dulza9pefs,,1,click @1,,"Koliko čega Luka je zaboravio, on mi je posudio?","Luka je zaboravio, koliko mi je novca posudio.",ai,,,28,,,
,Timer frame,html.Frame,2_28_1,,,,,,,2323.200000143028,432910,432901.5,432951.9,435275.10000014305,435275.7000000477,2024-07-31T20:03:47.672Z,435339.5,2PuMEJFsNx,incremental,anketa,6645cf40bc81b65c5faccf1d,participant,hcpib7dulza9pefs,,,,,"Koliko čega Luka je zaboravio, on mi je posudio?","Luka je zaboravio, koliko mi je novca posudio.",ai,,,28,,,
