meta,sender,sender_type,sender_id,age,education,croatian-knowledge,occupation,,ended_on,duration,time_run,time_render,time_show,time_end,time_commit,timestamp,time_switch,openLabId,type,task,project,status,code,confirmationCode,response,response_action,answer_true,stimulus,context,island_type,transfer_s,transfer_c,id,right_answer,question,change_date
"{""labjs_version"":""20.2.4"",""labjs_build"":{""flavor"":""production"",""commit"":""f5b4a49f956347addd546a832a3327688c2c0fef""},""location"":""https://open-lab.online/test/anketa/66a960e5e3bab725623a4299"",""userAgent"":""Mozilla/5.0 (Linux; Android 10; K) AppleWebKit/537.36 (KHTML, like Gecko) Chrome/127.0.0.0 Mobile Safari/537.36"",""platform"":""Linux armv81"",""language"":""en-GB"",""locale"":""en-GB"",""timeZone"":""Europe/Zagreb"",""timezoneOffset"":-120,""screen_width"":384,""screen_height"":832,""scroll_width"":980,""scroll_height"":1882,""window_innerWidth"":980,""window_innerHeight"":1786,""devicePixelRatio"":2.8125}",Demography form,html.Form,0,32,master,mother-tongue,Knjižničar,,form submission,25764.300000047682,1005.0999999046326,1003.5,1111.9,26876.200000047684,26877.599999904633,2024-07-30T21:54:07.985Z,26930.9,6q8-cdK9ew,incremental,anketa,6645cf40bc81b65c5faccf1d,participant,hcpib7dulz8yg417,496243,,,,,,,,,,,,
,context,canvas.Screen,1_0,,,,,,response,7402.800000047682,26878.200000047684,26880.9,26930.9,34333.700000047684,34589.799999952316,2024-07-30T21:54:15.697Z,34632,6q8-cdK9ew,incremental,anketa,6645cf40bc81b65c5faccf1d,participant,hcpib7dulz8yg417,,,click,,,,,,,,,,
,stimulus,canvas.Screen,1_1,,,,,,response,20965.599999904633,34590.299999952316,34590.4,34632,55597.59999990463,55851,2024-07-30T21:54:36.958Z,55894.9,6q8-cdK9ew,incremental,anketa,6645cf40bc81b65c5faccf1d,participant,hcpib7dulz8yg417,,7,click @7,,,,,,,,,,
,inter-stimulus,canvas.Screen,1_2,,,,,,response,4120.699999904631,55851.299999952316,55853.2,55894.9,60015.59999990463,60229.59999990463,2024-07-30T21:54:41.337Z,60262.5,6q8-cdK9ew,incremental,anketa,6645cf40bc81b65c5faccf1d,participant,hcpib7dulz8yg417,,,mousedown,,,,,,,,,,
,context,canvas.Screen,1_3,,,,,,response,336.7000000476837,60229.90000009537,60237.6,60262.5,60599.200000047684,60863.200000047684,2024-07-30T21:54:41.970Z,60921.3,6q8-cdK9ew,incremental,anketa,6645cf40bc81b65c5faccf1d,participant,hcpib7dulz8yg417,,,click,,,,,,,,,,
,stimulus,canvas.Screen,1_4,,,,,,response,5912.1000000953645,60863.59999990463,60871.4,60921.3,66833.40000009537,67034.90000009537,2024-07-30T21:54:48.142Z,67071.5,6q8-cdK9ew,incremental,anketa,6645cf40bc81b65c5faccf1d,participant,hcpib7dulz8yg417,,1,click @1,,,,,,,,,,
,inter-stimulus,canvas.Screen,1_5,,,,,,response,4512.400000095367,67035.20000004768,67038.3,67071.5,71583.90000009537,71817.40000009537,2024-07-30T21:54:52.925Z,71864.1,6q8-cdK9ew,incremental,anketa,6645cf40bc81b65c5faccf1d,participant,hcpib7dulz8yg417,,,mousedown,,,,,,,,,,
,context,canvas.Screen,1_6,,,,,,response,2261.899999999994,71817.79999995232,71822.4,71864.1,74126,74352.20000004768,2024-07-30T21:54:55.459Z,,6q8-cdK9ew,incremental,anketa,6645cf40bc81b65c5faccf1d,participant,hcpib7dulz8yg417,,,click,,,,,,,,,,
,stimulus,canvas.Screen,1_7_0,,,,,,response,5713.300000000003,74355.79999995232,74355.9,74405.7,80119,80351.09999990463,2024-07-30T21:55:01.458Z,80406.9,6q8-cdK9ew,incremental,anketa,6645cf40bc81b65c5faccf1d,participant,hcpib7dulz8yg417,,7,click @7,,,,,,,,,,
,Timer frame,html.Frame,1_7,,,,,,,5945.70000009537,74352.59999990463,74355.9,74405.7,80351.40000009537,80352,2024-07-30T21:55:01.459Z,80406.9,6q8-cdK9ew,incremental,anketa,6645cf40bc81b65c5faccf1d,participant,hcpib7dulz8yg417,,,,,,,,,,,,,
,Screen,canvas.Screen,1_8,,,,,,response,6565.199999904638,80352.09999990463,80356.9,80406.9,86972.09999990463,87156.29999995232,2024-07-30T21:55:08.264Z,87167.8,6q8-cdK9ew,incremental,anketa,6645cf40bc81b65c5faccf1d,participant,hcpib7dulz8yg417,,,mousedown,,,,,,,,,,
,Question form,html.Form,1_9,,,,,,form submission,9566.79999990463,87156.59999990463,87159.5,87167.8,96734.59999990463,96735.29999995232,2024-07-30T21:55:17.843Z,96777.7,6q8-cdK9ew,incremental,anketa,6645cf40bc81b65c5faccf1d,participant,hcpib7dulz8yg417,,,,Zrele,,,,,,,,,
,Screen,canvas.Screen,1_10,,,,,,response,1938.3999999046355,96738.29999995232,96760.9,96777.7,98716.09999990463,98922.79999995232,2024-07-30T21:55:20.030Z,98969.9,6q8-cdK9ew,incremental,anketa,6645cf40bc81b65c5faccf1d,participant,hcpib7dulz8yg417,,,mousedown,,,,,,,,,,
,inter-stimulus,canvas.Screen,1_11,,,,,,response,5372.699999904638,98923.20000004768,98928.2,98969.9,104342.59999990463,104574.09999990463,2024-07-30T21:55:25.681Z,104612.4,6q8-cdK9ew,incremental,anketa,6645cf40bc81b65c5faccf1d,participant,hcpib7dulz8yg417,,,mousedown,,,,,,,,,,
,First stimuli,flow.Sequence,1,,,,,,completion,77411.69999990464,26878.200000047684,26880.9,26930.9,104342.59999990463,104577.40000009537,2024-07-30T21:55:25.685Z,104612.4,6q8-cdK9ew,incremental,anketa,6645cf40bc81b65c5faccf1d,participant,hcpib7dulz8yg417,,,,,,,,,,,,,
,context,canvas.Screen,2_0_0_0,,,,,,response,2247.0000000953733,104578.5,104570.7,104612.4,106859.40000009537,107060.20000004768,2024-07-30T21:55:28.167Z,107104.4,6q8-cdK9ew,incremental,anketa,6645cf40bc81b65c5faccf1d,participant,hcpib7dulz8yg417,,,click,,Što je Inna tri sata pročitala?,Inna je tri sata čitala zanimljiv članak.,nf,,,39,,,
,Timer frame,html.Frame,2_0_0,,,,,,,2448.1999999046384,104578,104570.7,104612.4,107060.59999990463,107061.59999990463,2024-07-30T21:55:28.169Z,107104.4,6q8-cdK9ew,incremental,anketa,6645cf40bc81b65c5faccf1d,participant,hcpib7dulz8yg417,,,,,Što je Inna tri sata pročitala?,Inna je tri sata čitala zanimljiv članak.,nf,,,39,,,
,stimulus,canvas.Screen,2_0_1_0,,,,,,response,4705.8000000476895,107062.29999995232,107062.8,107104.4,111810.20000004768,112023.70000004768,2024-07-30T21:55:33.131Z,112080,6q8-cdK9ew,incremental,anketa,6645cf40bc81b65c5faccf1d,participant,hcpib7dulz8yg417,,1,click @1,,Što je Inna tri sata pročitala?,Inna je tri sata čitala zanimljiv članak.,nf,,,39,,,
,Timer frame,html.Frame,2_0_1,,,,,,,4919.699999904638,107061.79999995232,107062.8,107104.4,112024.09999990463,112024.90000009537,2024-07-30T21:55:33.132Z,112080,6q8-cdK9ew,incremental,anketa,6645cf40bc81b65c5faccf1d,participant,hcpib7dulz8yg417,,,,,Što je Inna tri sata pročitala?,Inna je tri sata čitala zanimljiv članak.,nf,,,39,,,
,Spremanje,canvas.Screen,2_0_2,,,,,,skipped,,112025.09999990463,,,112024.09999990463,112025.40000009537,2024-07-30T21:55:33.133Z,112080,6q8-cdK9ew,incremental,anketa,6645cf40bc81b65c5faccf1d,participant,hcpib7dulz8yg417,,,,,Što je Inna tri sata pročitala?,Inna je tri sata čitala zanimljiv članak.,nf,,,39,,,
,Question form,html.Form,2_0_3,,,,,,skipped,,112025.59999990463,,,112024.09999990463,112025.90000009537,2024-07-30T21:55:33.133Z,112080,6q8-cdK9ew,incremental,anketa,6645cf40bc81b65c5faccf1d,participant,hcpib7dulz8yg417,,,,,Što je Inna tri sata pročitala?,Inna je tri sata čitala zanimljiv članak.,nf,,,39,,,
,Answer indication,canvas.Screen,2_0_4,,,,,,skipped,,112029.09999990463,,,112024.09999990463,112029.29999995232,2024-07-30T21:55:33.137Z,112080,6q8-cdK9ew,incremental,anketa,6645cf40bc81b65c5faccf1d,participant,hcpib7dulz8yg417,,,,,Što je Inna tri sata pročitala?,Inna je tri sata čitala zanimljiv članak.,nf,,,39,,,
,inter-stimulus,canvas.Screen,2_0_5,,,,,,response,2647.4000000953674,112029.5,112029.9,112080,114727.40000009537,114978,2024-07-30T21:55:36.085Z,115030.4,6q8-cdK9ew,incremental,anketa,6645cf40bc81b65c5faccf1d,participant,hcpib7dulz8yg417,,,mousedown,,Što je Inna tri sata pročitala?,Inna je tri sata čitala zanimljiv članak.,nf,,,39,,,
,Sequence,flow.Sequence,2_0,,,,,,completion,10115.000000095373,104577.90000009537,104570.7,104612.4,114727.40000009537,114978.5,2024-07-30T21:55:36.086Z,115030.4,6q8-cdK9ew,incremental,anketa,6645cf40bc81b65c5faccf1d,participant,hcpib7dulz8yg417,,,,,Što je Inna tri sata pročitala?,Inna je tri sata čitala zanimljiv članak.,nf,,,39,,,
,context,canvas.Screen,2_1_0_0,,,,,,response,2039.1999999046384,114979.09999990463,114980.5,115030.4,117069.59999990463,117277.29999995232,2024-07-30T21:55:38.385Z,117305.9,6q8-cdK9ew,incremental,anketa,6645cf40bc81b65c5faccf1d,participant,hcpib7dulz8yg417,,,click,,Večeras je Anna nalakirala nokte.,Anna je večeras nalakirala nokte.,gf,,,49,,,
,Timer frame,html.Frame,2_1_0,,,,,,,2247.3000000476895,114978.90000009537,114980.5,115030.4,117277.70000004768,117277.90000009537,2024-07-30T21:55:38.385Z,117305.9,6q8-cdK9ew,incremental,anketa,6645cf40bc81b65c5faccf1d,participant,hcpib7dulz8yg417,,,,,Večeras je Anna nalakirala nokte.,Anna je večeras nalakirala nokte.,gf,,,49,,,
,stimulus,canvas.Screen,2_1_1_0,,,,,,response,5497.899999952322,117278.40000009537,117280.9,117305.9,122803.79999995232,123013.29999995232,2024-07-30T21:55:44.121Z,123081.5,6q8-cdK9ew,incremental,anketa,6645cf40bc81b65c5faccf1d,participant,hcpib7dulz8yg417,,6,click @6,,Večeras je Anna nalakirala nokte.,Anna je večeras nalakirala nokte.,gf,,,49,,,
,Timer frame,html.Frame,2_1_1,,,,,,,5707.699999904638,117278.09999990463,117280.9,117305.9,123013.59999990463,123013.90000009537,2024-07-30T21:55:44.121Z,123081.5,6q8-cdK9ew,incremental,anketa,6645cf40bc81b65c5faccf1d,participant,hcpib7dulz8yg417,,,,,Večeras je Anna nalakirala nokte.,Anna je večeras nalakirala nokte.,gf,,,49,,,
,Spremanje,canvas.Screen,2_1_2,,,,,,skipped,,123014.09999990463,,,123013.59999990463,123014.20000004768,2024-07-30T21:55:44.121Z,123081.5,6q8-cdK9ew,incremental,anketa,6645cf40bc81b65c5faccf1d,participant,hcpib7dulz8yg417,,,,,Večeras je Anna nalakirala nokte.,Anna je večeras nalakirala nokte.,gf,,,49,,,
,Question form,html.Form,2_1_3,,,,,,skipped,,123014.40000009537,,,123013.59999990463,123014.59999990463,2024-07-30T21:55:44.122Z,123081.5,6q8-cdK9ew,incremental,anketa,6645cf40bc81b65c5faccf1d,participant,hcpib7dulz8yg417,,,,,Večeras je Anna nalakirala nokte.,Anna je večeras nalakirala nokte.,gf,,,49,,,
,Answer indication,canvas.Screen,2_1_4,,,,,,skipped,,123017.09999990463,,,123013.59999990463,123017.40000009537,2024-07-30T21:55:44.125Z,123081.5,6q8-cdK9ew,incremental,anketa,6645cf40bc81b65c5faccf1d,participant,hcpib7dulz8yg417,,,,,Večeras je Anna nalakirala nokte.,Anna je večeras nalakirala nokte.,gf,,,49,,,
,inter-stimulus,canvas.Screen,2_1_5,,,,,,response,1155.7999999523163,123017.59999990463,123010.9,123081.5,124237.29999995232,124462.70000004768,2024-07-30T21:55:45.570Z,124489.9,6q8-cdK9ew,incremental,anketa,6645cf40bc81b65c5faccf1d,participant,hcpib7dulz8yg417,,,mousedown,,Večeras je Anna nalakirala nokte.,Anna je večeras nalakirala nokte.,gf,,,49,,,
,Sequence,flow.Sequence,2_1,,,,,,completion,9206.899999952322,114978.79999995232,114980.5,115030.4,124237.29999995232,124463.29999995232,2024-07-30T21:55:45.571Z,124489.9,6q8-cdK9ew,incremental,anketa,6645cf40bc81b65c5faccf1d,participant,hcpib7dulz8yg417,,,,,Večeras je Anna nalakirala nokte.,Anna je večeras nalakirala nokte.,gf,,,49,,,
,context,canvas.Screen,2_2_0_0,,,,,,response,3497.899999952322,124464,124464.9,124489.9,127987.79999995232,128226.5,2024-07-30T21:55:49.334Z,128282.3,6q8-cdK9ew,incremental,anketa,6645cf40bc81b65c5faccf1d,participant,hcpib7dulz8yg417,,,click,,Kakva čovjeka svatko tko poznaje može potvrditi njegov integritet??,Svatko tko poznaje onog čovjeka može potvrditi njegov integritet..,si,33,31,12,,,2305
,Timer frame,html.Frame,2_2_0,,,,,,,3736.8000000476895,124463.70000004768,124464.9,124489.9,128226.70000004768,128227,2024-07-30T21:55:49.334Z,128282.3,6q8-cdK9ew,incremental,anketa,6645cf40bc81b65c5faccf1d,participant,hcpib7dulz8yg417,,,,,Kakva čovjeka svatko tko poznaje može potvrditi njegov integritet??,Svatko tko poznaje onog čovjeka može potvrditi njegov integritet..,si,33,31,12,,,2305
,stimulus,canvas.Screen,2_2_1_0,,,,,,response,4805.79999990463,128227.59999990463,128232.1,128282.3,133088.09999990463,133307.90000009537,2024-07-30T21:55:54.415Z,133340.4,6q8-cdK9ew,incremental,anketa,6645cf40bc81b65c5faccf1d,participant,hcpib7dulz8yg417,,2,click @2,,Kakva čovjeka svatko tko poznaje može potvrditi njegov integritet??,Svatko tko poznaje onog čovjeka može potvrditi njegov integritet..,si,33,31,12,,,2305
,Timer frame,html.Frame,2_2_1,,,,,,,5025.900000047681,128227.20000004768,128232.1,128282.3,133308.20000004768,133308.40000009537,2024-07-30T21:55:54.416Z,133340.4,6q8-cdK9ew,incremental,anketa,6645cf40bc81b65c5faccf1d,participant,hcpib7dulz8yg417,,,,,Kakva čovjeka svatko tko poznaje može potvrditi njegov integritet??,Svatko tko poznaje onog čovjeka može potvrditi njegov integritet..,si,33,31,12,,,2305
,Spremanje,canvas.Screen,2_2_2,,,,,,skipped,,133308.59999990463,,,133308.20000004768,133308.79999995232,2024-07-30T21:55:54.416Z,133340.4,6q8-cdK9ew,incremental,anketa,6645cf40bc81b65c5faccf1d,participant,hcpib7dulz8yg417,,,,,Kakva čovjeka svatko tko poznaje može potvrditi njegov integritet??,Svatko tko poznaje onog čovjeka može potvrditi njegov integritet..,si,33,31,12,,,2305
,Question form,html.Form,2_2_3,,,,,,skipped,,133308.90000009537,,,133308.20000004768,133309.09999990463,2024-07-30T21:55:54.416Z,133340.4,6q8-cdK9ew,incremental,anketa,6645cf40bc81b65c5faccf1d,participant,hcpib7dulz8yg417,,,,,Kakva čovjeka svatko tko poznaje može potvrditi njegov integritet??,Svatko tko poznaje onog čovjeka može potvrditi njegov integritet..,si,33,31,12,,,2305
,Answer indication,canvas.Screen,2_2_4,,,,,,skipped,,133311.09999990463,,,133308.20000004768,133311.40000009537,2024-07-30T21:55:54.419Z,133340.4,6q8-cdK9ew,incremental,anketa,6645cf40bc81b65c5faccf1d,participant,hcpib7dulz8yg417,,,,,Kakva čovjeka svatko tko poznaje može potvrditi njegov integritet??,Svatko tko poznaje onog čovjeka može potvrditi njegov integritet..,si,33,31,12,,,2305
,inter-stimulus,canvas.Screen,2_2_5,,,,,,response,1223.0000000953733,133311.59999990463,133315.4,133340.4,134563.40000009537,134780.90000009537,2024-07-30T21:55:55.888Z,134823.8,6q8-cdK9ew,incremental,anketa,6645cf40bc81b65c5faccf1d,participant,hcpib7dulz8yg417,,,mousedown,,Kakva čovjeka svatko tko poznaje može potvrditi njegov integritet??,Svatko tko poznaje onog čovjeka može potvrditi njegov integritet..,si,33,31,12,,,2305
,Sequence,flow.Sequence,2_2,,,,,,completion,10073.500000095373,124463.59999990463,124464.9,124489.9,134563.40000009537,134781.5,2024-07-30T21:55:55.889Z,134823.8,6q8-cdK9ew,incremental,anketa,6645cf40bc81b65c5faccf1d,participant,hcpib7dulz8yg417,,,,,Kakva čovjeka svatko tko poznaje može potvrditi njegov integritet??,Svatko tko poznaje onog čovjeka može potvrditi njegov integritet..,si,33,31,12,,,2305
,context,canvas.Screen,2_3_0_0,,,,,,response,2864.9000000476954,134782.09999990463,134782.1,134823.8,137688.70000004768,137896.5,2024-07-30T21:55:59.004Z,137949.3,6q8-cdK9ew,incremental,anketa,6645cf40bc81b65c5faccf1d,participant,hcpib7dulz8yg417,,,click,,Tko se zaljubio u djevojku kad je bio dijete?,"Kad smo bili djeca, moj prijatelj i ja smo se zaljubili u istu djevojku..",gf,,33,52,,,
,Timer frame,html.Frame,2_3_0,,,,,,,3072.999999952328,134781.79999995232,134782.1,134823.8,137896.79999995232,137897.09999990463,2024-07-30T21:55:59.004Z,137949.3,6q8-cdK9ew,incremental,anketa,6645cf40bc81b65c5faccf1d,participant,hcpib7dulz8yg417,,,,,Tko se zaljubio u djevojku kad je bio dijete?,"Kad smo bili djeca, moj prijatelj i ja smo se zaljubili u istu djevojku..",gf,,33,52,,,
,stimulus,canvas.Screen,2_3_1_0,,,,,,response,4665.499999952328,137897.70000004768,137899.1,137949.3,142614.79999995232,142831.90000009537,2024-07-30T21:56:03.939Z,142882.3,6q8-cdK9ew,incremental,anketa,6645cf40bc81b65c5faccf1d,participant,hcpib7dulz8yg417,,7,click @7,,Tko se zaljubio u djevojku kad je bio dijete?,"Kad smo bili djeca, moj prijatelj i ja smo se zaljubili u istu djevojku..",gf,,33,52,,,
,Timer frame,html.Frame,2_3_1,,,,,,,4882.900000047695,137897.40000009537,137899.1,137949.3,142832.20000004768,142832.40000009537,2024-07-30T21:56:03.940Z,142882.3,6q8-cdK9ew,incremental,anketa,6645cf40bc81b65c5faccf1d,participant,hcpib7dulz8yg417,,,,,Tko se zaljubio u djevojku kad je bio dijete?,"Kad smo bili djeca, moj prijatelj i ja smo se zaljubili u istu djevojku..",gf,,33,52,,,
,Spremanje,canvas.Screen,2_3_2,,,,,,skipped,,142832.5,,,142832.20000004768,142832.70000004768,2024-07-30T21:56:03.940Z,142882.3,6q8-cdK9ew,incremental,anketa,6645cf40bc81b65c5faccf1d,participant,hcpib7dulz8yg417,,,,,Tko se zaljubio u djevojku kad je bio dijete?,"Kad smo bili djeca, moj prijatelj i ja smo se zaljubili u istu djevojku..",gf,,33,52,,,
,Question form,html.Form,2_3_3,,,,,,skipped,,142832.79999995232,,,142832.20000004768,142833,2024-07-30T21:56:03.940Z,142882.3,6q8-cdK9ew,incremental,anketa,6645cf40bc81b65c5faccf1d,participant,hcpib7dulz8yg417,,,,,Tko se zaljubio u djevojku kad je bio dijete?,"Kad smo bili djeca, moj prijatelj i ja smo se zaljubili u istu djevojku..",gf,,33,52,,,
,Answer indication,canvas.Screen,2_3_4,,,,,,skipped,,142834.79999995232,,,142832.20000004768,142835,2024-07-30T21:56:03.942Z,142882.3,6q8-cdK9ew,incremental,anketa,6645cf40bc81b65c5faccf1d,participant,hcpib7dulz8yg417,,,,,Tko se zaljubio u djevojku kad je bio dijete?,"Kad smo bili djeca, moj prijatelj i ja smo se zaljubili u istu djevojku..",gf,,33,52,,,
,inter-stimulus,canvas.Screen,2_3_5,,,,,,response,916.2999999046442,142835.20000004768,142831.2,142882.3,143798.59999990463,144012.59999990463,2024-07-30T21:56:05.120Z,144041.8,6q8-cdK9ew,incremental,anketa,6645cf40bc81b65c5faccf1d,participant,hcpib7dulz8yg417,,,mousedown,,Tko se zaljubio u djevojku kad je bio dijete?,"Kad smo bili djeca, moj prijatelj i ja smo se zaljubili u istu djevojku..",gf,,33,52,,,
,Sequence,flow.Sequence,2_3,,,,,,completion,8974.799999904644,134781.70000004768,134782.1,134823.8,143798.59999990463,144013.20000004768,2024-07-30T21:56:05.120Z,144041.8,6q8-cdK9ew,incremental,anketa,6645cf40bc81b65c5faccf1d,participant,hcpib7dulz8yg417,,,,,Tko se zaljubio u djevojku kad je bio dijete?,"Kad smo bili djeca, moj prijatelj i ja smo se zaljubili u istu djevojku..",gf,,33,52,,,
,context,canvas.Screen,2_4_0_0,,,,,,response,3524.299999904644,144013.79999995232,144016.8,144041.8,147566.09999990463,147815.40000009537,2024-07-30T21:56:08.923Z,147867.5,6q8-cdK9ew,incremental,anketa,6645cf40bc81b65c5faccf1d,participant,hcpib7dulz8yg417,,,click,,Tko je ovo bio jasan slučaj da je zapravo pohlepna osoba??,Ovo je bio jasan slučaj da je on zapravo pohlepna osoba..,cnp,41,40,8,,,
,Timer frame,html.Frame,2_4_0,,,,,,,3773.9000000476954,144013.5,144016.8,144041.8,147815.70000004768,147816,2024-07-30T21:56:08.923Z,147867.5,6q8-cdK9ew,incremental,anketa,6645cf40bc81b65c5faccf1d,participant,hcpib7dulz8yg417,,,,,Tko je ovo bio jasan slučaj da je zapravo pohlepna osoba??,Ovo je bio jasan slučaj da je on zapravo pohlepna osoba..,cnp,41,40,8,,,
,stimulus,canvas.Screen,2_4_1_0,,,,,,response,2473.7000000476837,147816.5,147817.5,147867.5,150341.20000004768,150566.59999990463,2024-07-30T21:56:11.674Z,150609.4,6q8-cdK9ew,incremental,anketa,6645cf40bc81b65c5faccf1d,participant,hcpib7dulz8yg417,,1,click @1,,Tko je ovo bio jasan slučaj da je zapravo pohlepna osoba??,Ovo je bio jasan slučaj da je on zapravo pohlepna osoba..,cnp,41,40,8,,,
,Timer frame,html.Frame,2_4_1,,,,,,,2699.5,147816.09999990463,147817.5,147867.5,150567,150567.20000004768,2024-07-30T21:56:11.674Z,150609.4,6q8-cdK9ew,incremental,anketa,6645cf40bc81b65c5faccf1d,participant,hcpib7dulz8yg417,,,,,Tko je ovo bio jasan slučaj da je zapravo pohlepna osoba??,Ovo je bio jasan slučaj da je on zapravo pohlepna osoba..,cnp,41,40,8,,,
,Spremanje,canvas.Screen,2_4_2,,,,,,skipped,,150567.40000009537,,,150567,150567.5,2024-07-30T21:56:11.675Z,150609.4,6q8-cdK9ew,incremental,anketa,6645cf40bc81b65c5faccf1d,participant,hcpib7dulz8yg417,,,,,Tko je ovo bio jasan slučaj da je zapravo pohlepna osoba??,Ovo je bio jasan slučaj da je on zapravo pohlepna osoba..,cnp,41,40,8,,,
,Question form,html.Form,2_4_3,,,,,,skipped,,150567.70000004768,,,150567,150567.90000009537,2024-07-30T21:56:11.675Z,150609.4,6q8-cdK9ew,incremental,anketa,6645cf40bc81b65c5faccf1d,participant,hcpib7dulz8yg417,,,,,Tko je ovo bio jasan slučaj da je zapravo pohlepna osoba??,Ovo je bio jasan slučaj da je on zapravo pohlepna osoba..,cnp,41,40,8,,,
,Answer indication,canvas.Screen,2_4_4,,,,,,skipped,,150570.20000004768,,,150567,150570.40000009537,2024-07-30T21:56:11.678Z,150609.4,6q8-cdK9ew,incremental,anketa,6645cf40bc81b65c5faccf1d,participant,hcpib7dulz8yg417,,,,,Tko je ovo bio jasan slučaj da je zapravo pohlepna osoba??,Ovo je bio jasan slučaj da je on zapravo pohlepna osoba..,cnp,41,40,8,,,
,inter-stimulus,canvas.Screen,2_4_5,,,,,,response,1098.8000000476895,150570.59999990463,150567.7,150609.4,151708.20000004768,151951.5,2024-07-30T21:56:13.059Z,152009.5,6q8-cdK9ew,incremental,anketa,6645cf40bc81b65c5faccf1d,participant,hcpib7dulz8yg417,,,mousedown,,Tko je ovo bio jasan slučaj da je zapravo pohlepna osoba??,Ovo je bio jasan slučaj da je on zapravo pohlepna osoba..,cnp,41,40,8,,,
,Sequence,flow.Sequence,2_4,,,,,,completion,7666.400000047695,144013.40000009537,144016.8,144041.8,151708.20000004768,151952.09999990463,2024-07-30T21:56:13.059Z,152009.5,6q8-cdK9ew,incremental,anketa,6645cf40bc81b65c5faccf1d,participant,hcpib7dulz8yg417,,,,,Tko je ovo bio jasan slučaj da je zapravo pohlepna osoba??,Ovo je bio jasan slučaj da je on zapravo pohlepna osoba..,cnp,41,40,8,,,
,context,canvas.Screen,2_5_0_0,,,,,,response,1965.2999999523163,151952.70000004768,151959.4,152009.5,153974.79999995232,154216.20000004768,2024-07-30T21:56:15.323Z,154259.8,6q8-cdK9ew,incremental,anketa,6645cf40bc81b65c5faccf1d,participant,hcpib7dulz8yg417,,,click,,Ove godine su se Viktor i Marta vjenčao.,Victor i Marta vjenčali su se ove godine.,nf,,,38,,,
,Timer frame,html.Frame,2_5_0,,,,,,,2207,151952.40000009537,151959.4,152009.5,154216.5,154216.70000004768,2024-07-30T21:56:15.324Z,154259.8,6q8-cdK9ew,incremental,anketa,6645cf40bc81b65c5faccf1d,participant,hcpib7dulz8yg417,,,,,Ove godine su se Viktor i Marta vjenčao.,Victor i Marta vjenčali su se ove godine.,nf,,,38,,,
,stimulus,canvas.Screen,2_5_1_0,,,,,,response,3290.499999952328,154217.40000009537,154209.8,154259.8,157550.29999995232,157750,2024-07-30T21:56:18.857Z,157785.1,6q8-cdK9ew,incremental,anketa,6645cf40bc81b65c5faccf1d,participant,hcpib7dulz8yg417,,2,click @2,,Ove godine su se Viktor i Marta vjenčao.,Victor i Marta vjenčali su se ove godine.,nf,,,38,,,
,Timer frame,html.Frame,2_5_1,,,,,,,3490.4000000476954,154217,154209.8,154259.8,157750.20000004768,157750.5,2024-07-30T21:56:18.858Z,157785.1,6q8-cdK9ew,incremental,anketa,6645cf40bc81b65c5faccf1d,participant,hcpib7dulz8yg417,,,,,Ove godine su se Viktor i Marta vjenčao.,Victor i Marta vjenčali su se ove godine.,nf,,,38,,,
,Spremanje,canvas.Screen,2_5_2,,,,,,skipped,,157750.59999990463,,,157750.20000004768,157750.70000004768,2024-07-30T21:56:18.858Z,157785.1,6q8-cdK9ew,incremental,anketa,6645cf40bc81b65c5faccf1d,participant,hcpib7dulz8yg417,,,,,Ove godine su se Viktor i Marta vjenčao.,Victor i Marta vjenčali su se ove godine.,nf,,,38,,,
,Question form,html.Form,2_5_3,,,,,,skipped,,157750.90000009537,,,157750.20000004768,157751.09999990463,2024-07-30T21:56:18.858Z,157785.1,6q8-cdK9ew,incremental,anketa,6645cf40bc81b65c5faccf1d,participant,hcpib7dulz8yg417,,,,,Ove godine su se Viktor i Marta vjenčao.,Victor i Marta vjenčali su se ove godine.,nf,,,38,,,
,Answer indication,canvas.Screen,2_5_4,,,,,,skipped,,157752.5,,,157750.20000004768,157752.70000004768,2024-07-30T21:56:18.860Z,157785.1,6q8-cdK9ew,incremental,anketa,6645cf40bc81b65c5faccf1d,participant,hcpib7dulz8yg417,,,,,Ove godine su se Viktor i Marta vjenčao.,Victor i Marta vjenčali su se ove godine.,nf,,,38,,,
,inter-stimulus,canvas.Screen,2_5_5,,,,,,response,806.8999999999942,157752.90000009537,157751.8,157785.1,158592,158815.5,2024-07-30T21:56:19.923Z,158843.3,6q8-cdK9ew,incremental,anketa,6645cf40bc81b65c5faccf1d,participant,hcpib7dulz8yg417,,,mousedown,,Ove godine su se Viktor i Marta vjenčao.,Victor i Marta vjenčali su se ove godine.,nf,,,38,,,
,Sequence,flow.Sequence,2_5,,,,,,completion,6582.5,151952.40000009537,151959.4,152009.5,158592,158816.09999990463,2024-07-30T21:56:19.923Z,158843.3,6q8-cdK9ew,incremental,anketa,6645cf40bc81b65c5faccf1d,participant,hcpib7dulz8yg417,,,,,Ove godine su se Viktor i Marta vjenčao.,Victor i Marta vjenčali su se ove godine.,nf,,,38,,,
,context,canvas.Screen,2_6_0_0,,,,,,response,5974.999999952328,158816.59999990463,158818.3,158843.3,164818.29999995232,165016.09999990463,2024-07-30T21:56:26.123Z,165060.7,6q8-cdK9ew,incremental,anketa,6645cf40bc81b65c5faccf1d,participant,hcpib7dulz8yg417,,,click,,Stare su samo Čehovljeve priče bile u ovoj knjižnici..,Samo su Čehovljeve priče bile stare u ovoj knjižnici..,di,35,35,33,,,
,Timer frame,html.Frame,2_6_0,,,,,,,6173.100000095379,158816.40000009537,158818.3,158843.3,165016.40000009537,165016.59999990463,2024-07-30T21:56:26.124Z,165060.7,6q8-cdK9ew,incremental,anketa,6645cf40bc81b65c5faccf1d,participant,hcpib7dulz8yg417,,,,,Stare su samo Čehovljeve priče bile u ovoj knjižnici..,Samo su Čehovljeve priče bile stare u ovoj knjižnici..,di,35,35,33,,,
,stimulus,canvas.Screen,2_6_1_0,,,,,,response,3666.399999904621,165017,165019,165060.7,168727.09999990463,168950.09999990463,2024-07-30T21:56:30.057Z,168985.8,6q8-cdK9ew,incremental,anketa,6645cf40bc81b65c5faccf1d,participant,hcpib7dulz8yg417,,3,click @3,,Stare su samo Čehovljeve priče bile u ovoj knjižnici..,Samo su Čehovljeve priče bile stare u ovoj knjižnici..,di,35,35,33,,,
,Timer frame,html.Frame,2_6_1,,,,,,,3889.700000095356,165016.79999995232,165019,165060.7,168950.40000009537,168950.59999990463,2024-07-30T21:56:30.058Z,168985.8,6q8-cdK9ew,incremental,anketa,6645cf40bc81b65c5faccf1d,participant,hcpib7dulz8yg417,,,,,Stare su samo Čehovljeve priče bile u ovoj knjižnici..,Samo su Čehovljeve priče bile stare u ovoj knjižnici..,di,35,35,33,,,
,Spremanje,canvas.Screen,2_6_2,,,,,,skipped,,168950.79999995232,,,168950.40000009537,168951,2024-07-30T21:56:30.058Z,168985.8,6q8-cdK9ew,incremental,anketa,6645cf40bc81b65c5faccf1d,participant,hcpib7dulz8yg417,,,,,Stare su samo Čehovljeve priče bile u ovoj knjižnici..,Samo su Čehovljeve priče bile stare u ovoj knjižnici..,di,35,35,33,,,
,Question form,html.Form,2_6_3,,,,,,skipped,,168951.20000004768,,,168950.40000009537,168951.29999995232,2024-07-30T21:56:30.059Z,168985.8,6q8-cdK9ew,incremental,anketa,6645cf40bc81b65c5faccf1d,participant,hcpib7dulz8yg417,,,,,Stare su samo Čehovljeve priče bile u ovoj knjižnici..,Samo su Čehovljeve priče bile stare u ovoj knjižnici..,di,35,35,33,,,
,Answer indication,canvas.Screen,2_6_4,,,,,,skipped,,168953.40000009537,,,168950.40000009537,168953.59999990463,2024-07-30T21:56:30.061Z,168985.8,6q8-cdK9ew,incremental,anketa,6645cf40bc81b65c5faccf1d,participant,hcpib7dulz8yg417,,,,,Stare su samo Čehovljeve priče bile u ovoj knjižnici..,Samo su Čehovljeve priče bile stare u ovoj knjižnici..,di,35,35,33,,,
,inter-stimulus,canvas.Screen,2_6_5,,,,,,response,840.9000000476954,168953.79999995232,168952.5,168985.8,169826.70000004768,170050,2024-07-30T21:56:31.157Z,170094.2,6q8-cdK9ew,incremental,anketa,6645cf40bc81b65c5faccf1d,participant,hcpib7dulz8yg417,,,mousedown,,Stare su samo Čehovljeve priče bile u ovoj knjižnici..,Samo su Čehovljeve priče bile stare u ovoj knjižnici..,di,35,35,33,,,
,Sequence,flow.Sequence,2_6,,,,,,completion,10983.400000047695,158816.29999995232,158818.3,158843.3,169826.70000004768,170050.5,2024-07-30T21:56:31.158Z,170094.2,6q8-cdK9ew,incremental,anketa,6645cf40bc81b65c5faccf1d,participant,hcpib7dulz8yg417,,,,,Stare su samo Čehovljeve priče bile u ovoj knjižnici..,Samo su Čehovljeve priče bile stare u ovoj knjižnici..,di,35,35,33,,,
,context,canvas.Screen,2_7_0_0,,,,,,response,1882.899999904621,170051.09999990463,170052.5,170094.2,171977.09999990463,172133.70000004768,2024-07-30T21:56:33.241Z,172161,6q8-cdK9ew,incremental,anketa,6645cf40bc81b65c5faccf1d,participant,hcpib7dulz8yg417,,,click,,Što je kupio i majicu?,On je kupio tenisice I majicu.,csi,0,0,0,,,2305
,Timer frame,html.Frame,2_7_0,,,,,,,2039.7999999999884,170050.70000004768,170052.5,170094.2,172134,172134.20000004768,2024-07-30T21:56:33.241Z,172161,6q8-cdK9ew,incremental,anketa,6645cf40bc81b65c5faccf1d,participant,hcpib7dulz8yg417,,,,,Što je kupio i majicu?,On je kupio tenisice I majicu.,csi,0,0,0,,,2305
,stimulus,canvas.Screen,2_7_1_0,,,,,,response,2734,172134.59999990463,172136,172161,174895,175118.20000004768,2024-07-30T21:56:36.225Z,175170.4,6q8-cdK9ew,incremental,anketa,6645cf40bc81b65c5faccf1d,participant,hcpib7dulz8yg417,,2,click @2,,Što je kupio i majicu?,On je kupio tenisice I majicu.,csi,0,0,0,,,2305
,Timer frame,html.Frame,2_7_1,,,,,,,2957.5,172134.40000009537,172136,172161,175118.5,175118.59999990463,2024-07-30T21:56:36.226Z,175170.4,6q8-cdK9ew,incremental,anketa,6645cf40bc81b65c5faccf1d,participant,hcpib7dulz8yg417,,,,,Što je kupio i majicu?,On je kupio tenisice I majicu.,csi,0,0,0,,,2305
,Spremanje,canvas.Screen,2_7_2,,,,,,skipped,,175118.79999995232,,,175118.5,175119,2024-07-30T21:56:36.226Z,175170.4,6q8-cdK9ew,incremental,anketa,6645cf40bc81b65c5faccf1d,participant,hcpib7dulz8yg417,,,,,Što je kupio i majicu?,On je kupio tenisice I majicu.,csi,0,0,0,,,2305
,Question form,html.Form,2_7_3,,,,,,skipped,,175119.20000004768,,,175118.5,175119.40000009537,2024-07-30T21:56:36.227Z,175170.4,6q8-cdK9ew,incremental,anketa,6645cf40bc81b65c5faccf1d,participant,hcpib7dulz8yg417,,,,,Što je kupio i majicu?,On je kupio tenisice I majicu.,csi,0,0,0,,,2305
,Answer indication,canvas.Screen,2_7_4,,,,,,skipped,,175120.90000009537,,,175118.5,175121,2024-07-30T21:56:36.228Z,175170.4,6q8-cdK9ew,incremental,anketa,6645cf40bc81b65c5faccf1d,participant,hcpib7dulz8yg417,,,,,Što je kupio i majicu?,On je kupio tenisice I majicu.,csi,0,0,0,,,2305
,inter-stimulus,canvas.Screen,2_7_5,,,,,,response,716.3999999523221,175121.29999995232,175120.3,175170.4,175886.79999995232,176127.29999995232,2024-07-30T21:56:37.235Z,176178.6,6q8-cdK9ew,incremental,anketa,6645cf40bc81b65c5faccf1d,participant,hcpib7dulz8yg417,,,mousedown,,Što je kupio i majicu?,On je kupio tenisice I majicu.,csi,0,0,0,,,2305
,Sequence,flow.Sequence,2_7,,,,,,completion,5792.599999952305,170050.59999990463,170052.5,170094.2,175886.79999995232,176127.90000009537,2024-07-30T21:56:37.235Z,176178.6,6q8-cdK9ew,incremental,anketa,6645cf40bc81b65c5faccf1d,participant,hcpib7dulz8yg417,,,,,Što je kupio i majicu?,On je kupio tenisice I majicu.,csi,0,0,0,,,2305
,context,canvas.Screen,2_8_0_0,,,,,,response,3949.6999999523105,176128.59999990463,176128.8,176178.6,180128.29999995232,180368.79999995232,2024-07-30T21:56:41.476Z,180420.1,6q8-cdK9ew,incremental,anketa,6645cf40bc81b65c5faccf1d,participant,hcpib7dulz8yg417,,,click,,Tko strah me i zamisliti s kakvim će se ogorčenjem vratiti kući??,Strah me i zamisliti s kakvim će se ogorčenjem moj brat vratiti kući..,ai,24,20,29,,,
,Timer frame,html.Frame,2_8_0,,,,,,,4190.399999999994,176128.20000004768,176128.8,176178.6,180369,180369.20000004768,2024-07-30T21:56:41.476Z,180420.1,6q8-cdK9ew,incremental,anketa,6645cf40bc81b65c5faccf1d,participant,hcpib7dulz8yg417,,,,,Tko strah me i zamisliti s kakvim će se ogorčenjem vratiti kući??,Strah me i zamisliti s kakvim će se ogorčenjem moj brat vratiti kući..,ai,24,20,29,,,
,stimulus,canvas.Screen,2_8_1_0,,,,,,response,5650.800000095362,180369.5,180370.3,180420.1,186070.90000009537,186303,2024-07-30T21:56:47.410Z,186345.8,6q8-cdK9ew,incremental,anketa,6645cf40bc81b65c5faccf1d,participant,hcpib7dulz8yg417,,7,click @7,,Tko strah me i zamisliti s kakvim će se ogorčenjem vratiti kući??,Strah me i zamisliti s kakvim će se ogorčenjem moj brat vratiti kući..,ai,24,20,29,,,
,Timer frame,html.Frame,2_8_1,,,,,,,5883.1999999523105,180369.29999995232,180370.3,180420.1,186303.29999995232,186303.70000004768,2024-07-30T21:56:47.411Z,186345.8,6q8-cdK9ew,incremental,anketa,6645cf40bc81b65c5faccf1d,participant,hcpib7dulz8yg417,,,,,Tko strah me i zamisliti s kakvim će se ogorčenjem vratiti kući??,Strah me i zamisliti s kakvim će se ogorčenjem moj brat vratiti kući..,ai,24,20,29,,,
,Spremanje,canvas.Screen,2_8_2,,,,,,skipped,,186303.90000009537,,,186303.29999995232,186304,2024-07-30T21:56:47.411Z,186345.8,6q8-cdK9ew,incremental,anketa,6645cf40bc81b65c5faccf1d,participant,hcpib7dulz8yg417,,,,,Tko strah me i zamisliti s kakvim će se ogorčenjem vratiti kući??,Strah me i zamisliti s kakvim će se ogorčenjem moj brat vratiti kući..,ai,24,20,29,,,
,Question form,html.Form,2_8_3,,,,,,skipped,,186304.20000004768,,,186303.29999995232,186304.40000009537,2024-07-30T21:56:47.412Z,186345.8,6q8-cdK9ew,incremental,anketa,6645cf40bc81b65c5faccf1d,participant,hcpib7dulz8yg417,,,,,Tko strah me i zamisliti s kakvim će se ogorčenjem vratiti kući??,Strah me i zamisliti s kakvim će se ogorčenjem moj brat vratiti kući..,ai,24,20,29,,,
,Answer indication,canvas.Screen,2_8_4,,,,,,skipped,,186306.5,,,186303.29999995232,186306.70000004768,2024-07-30T21:56:47.414Z,186345.8,6q8-cdK9ew,incremental,anketa,6645cf40bc81b65c5faccf1d,participant,hcpib7dulz8yg417,,,,,Tko strah me i zamisliti s kakvim će se ogorčenjem vratiti kući??,Strah me i zamisliti s kakvim će se ogorčenjem moj brat vratiti kući..,ai,24,20,29,,,
,inter-stimulus,canvas.Screen,2_8_5,,,,,,response,942.4999999523279,186306.79999995232,186303.7,186345.8,187288.29999995232,187470.09999990463,2024-07-30T21:56:48.577Z,187512.7,6q8-cdK9ew,incremental,anketa,6645cf40bc81b65c5faccf1d,participant,hcpib7dulz8yg417,,,mousedown,,Tko strah me i zamisliti s kakvim će se ogorčenjem vratiti kući??,Strah me i zamisliti s kakvim će se ogorčenjem moj brat vratiti kući..,ai,24,20,29,,,
,Sequence,flow.Sequence,2_8,,,,,,completion,11109.69999995231,176128.09999990463,176128.8,176178.6,187288.29999995232,187470.5,2024-07-30T21:56:48.578Z,187512.7,6q8-cdK9ew,incremental,anketa,6645cf40bc81b65c5faccf1d,participant,hcpib7dulz8yg417,,,,,Tko strah me i zamisliti s kakvim će se ogorčenjem vratiti kući??,Strah me i zamisliti s kakvim će se ogorčenjem moj brat vratiti kući..,ai,24,20,29,,,
,context,canvas.Screen,2_9_0_0,,,,,,response,3125.2999999999884,187471,187471,187512.7,190638,190900.79999995232,2024-07-30T21:56:52.008Z,190929.6,6q8-cdK9ew,incremental,anketa,6645cf40bc81b65c5faccf1d,participant,hcpib7dulz8yg417,,,click,,"To su oni siromasi, koje je htio nahraniti i moliti se bogu..",Hoće nahraniti siromahe i moliti se bogu.,csi,42,0,6,,,
,Timer frame,html.Frame,2_9_0,,,,,,,3388.399999904621,187470.79999995232,187471,187512.7,190901.09999990463,190901.40000009537,2024-07-30T21:56:52.009Z,190929.6,6q8-cdK9ew,incremental,anketa,6645cf40bc81b65c5faccf1d,participant,hcpib7dulz8yg417,,,,,"To su oni siromasi, koje je htio nahraniti i moliti se bogu..",Hoće nahraniti siromahe i moliti se bogu.,csi,42,0,6,,,
,stimulus,canvas.Screen,2_9_1_0,,,,,,response,3157.8000000953616,190901.79999995232,190904.6,190929.6,194087.40000009537,194303.79999995232,2024-07-30T21:56:55.411Z,194353.7,6q8-cdK9ew,incremental,anketa,6645cf40bc81b65c5faccf1d,participant,hcpib7dulz8yg417,,7,click @7,,"To su oni siromasi, koje je htio nahraniti i moliti se bogu..",Hoće nahraniti siromahe i moliti se bogu.,csi,42,0,6,,,
,Timer frame,html.Frame,2_9_1,,,,,,,3374.4999999046267,190901.5,190904.6,190929.6,194304.09999990463,194304.20000004768,2024-07-30T21:56:55.411Z,194353.7,6q8-cdK9ew,incremental,anketa,6645cf40bc81b65c5faccf1d,participant,hcpib7dulz8yg417,,,,,"To su oni siromasi, koje je htio nahraniti i moliti se bogu..",Hoće nahraniti siromahe i moliti se bogu.,csi,42,0,6,,,
,Spremanje,canvas.Screen,2_9_2,,,,,,skipped,,194304.40000009537,,,194304.09999990463,194304.5,2024-07-30T21:56:55.412Z,194353.7,6q8-cdK9ew,incremental,anketa,6645cf40bc81b65c5faccf1d,participant,hcpib7dulz8yg417,,,,,"To su oni siromasi, koje je htio nahraniti i moliti se bogu..",Hoće nahraniti siromahe i moliti se bogu.,csi,42,0,6,,,
,Question form,html.Form,2_9_3,,,,,,skipped,,194304.70000004768,,,194304.09999990463,194304.90000009537,2024-07-30T21:56:55.412Z,194353.7,6q8-cdK9ew,incremental,anketa,6645cf40bc81b65c5faccf1d,participant,hcpib7dulz8yg417,,,,,"To su oni siromasi, koje je htio nahraniti i moliti se bogu..",Hoće nahraniti siromahe i moliti se bogu.,csi,42,0,6,,,
,Answer indication,canvas.Screen,2_9_4,,,,,,skipped,,194306.20000004768,,,194304.09999990463,194306.40000009537,2024-07-30T21:56:55.414Z,194353.7,6q8-cdK9ew,incremental,anketa,6645cf40bc81b65c5faccf1d,participant,hcpib7dulz8yg417,,,,,"To su oni siromasi, koje je htio nahraniti i moliti se bogu..",Hoće nahraniti siromahe i moliti se bogu.,csi,42,0,6,,,
,inter-stimulus,canvas.Screen,2_9_5,,,,,,response,842.7999999999884,194306.59999990463,194312.1,194353.7,195196.5,195395.70000004768,2024-07-30T21:56:56.503Z,195429.3,6q8-cdK9ew,incremental,anketa,6645cf40bc81b65c5faccf1d,participant,hcpib7dulz8yg417,,,mousedown,,"To su oni siromasi, koje je htio nahraniti i moliti se bogu..",Hoće nahraniti siromahe i moliti se bogu.,csi,42,0,6,,,
,Sequence,flow.Sequence,2_9,,,,,,completion,7683.799999999988,187470.70000004768,187471,187512.7,195196.5,195396.20000004768,2024-07-30T21:56:56.503Z,195429.3,6q8-cdK9ew,incremental,anketa,6645cf40bc81b65c5faccf1d,participant,hcpib7dulz8yg417,,,,,"To su oni siromasi, koje je htio nahraniti i moliti se bogu..",Hoće nahraniti siromahe i moliti se bogu.,csi,42,0,6,,,
,context,canvas.Screen,2_10_0_0,,,,,,response,2208.799999904644,195396.90000009537,195395.9,195429.3,197638.09999990463,197770.5,2024-07-30T21:56:58.878Z,197821,6q8-cdK9ew,incremental,anketa,6645cf40bc81b65c5faccf1d,participant,hcpib7dulz8yg417,,,click,,Kakva je kraj mene biciklom prošla djevojka?,Kraj mene je biciklom prošla vrlo lijepa djevojka.,ai,,,27,,,
,Timer frame,html.Frame,2_10_0,,,,,,,2341.499999952328,195396.59999990463,195395.9,195429.3,197770.79999995232,197771,2024-07-30T21:56:58.878Z,197821,6q8-cdK9ew,incremental,anketa,6645cf40bc81b65c5faccf1d,participant,hcpib7dulz8yg417,,,,,Kakva je kraj mene biciklom prošla djevojka?,Kraj mene je biciklom prošla vrlo lijepa djevojka.,ai,,,27,,,
,stimulus,canvas.Screen,2_10_1_0,,,,,,response,6060.200000047684,197771.40000009537,197770.9,197821,203881.20000004768,204072.40000009537,2024-07-30T21:57:05.180Z,204111.9,6q8-cdK9ew,incremental,anketa,6645cf40bc81b65c5faccf1d,participant,hcpib7dulz8yg417,,5,click @5,,Kakva je kraj mene biciklom prošla djevojka?,Kraj mene je biciklom prošla vrlo lijepa djevojka.,ai,,,27,,,
,Timer frame,html.Frame,2_10_1,,,,,,,6251.700000047684,197771.20000004768,197770.9,197821,204072.70000004768,204073,2024-07-30T21:57:05.180Z,204111.9,6q8-cdK9ew,incremental,anketa,6645cf40bc81b65c5faccf1d,participant,hcpib7dulz8yg417,,,,,Kakva je kraj mene biciklom prošla djevojka?,Kraj mene je biciklom prošla vrlo lijepa djevojka.,ai,,,27,,,
,Spremanje,canvas.Screen,2_10_2,,,,,,skipped,,204073.20000004768,,,204072.70000004768,204073.40000009537,2024-07-30T21:57:05.181Z,204111.9,6q8-cdK9ew,incremental,anketa,6645cf40bc81b65c5faccf1d,participant,hcpib7dulz8yg417,,,,,Kakva je kraj mene biciklom prošla djevojka?,Kraj mene je biciklom prošla vrlo lijepa djevojka.,ai,,,27,,,
,Question form,html.Form,2_10_3,,,,,,skipped,,204073.59999990463,,,204072.70000004768,204073.70000004768,2024-07-30T21:57:05.181Z,204111.9,6q8-cdK9ew,incremental,anketa,6645cf40bc81b65c5faccf1d,participant,hcpib7dulz8yg417,,,,,Kakva je kraj mene biciklom prošla djevojka?,Kraj mene je biciklom prošla vrlo lijepa djevojka.,ai,,,27,,,
,Answer indication,canvas.Screen,2_10_4,,,,,,skipped,,204075.90000009537,,,204072.70000004768,204076.20000004768,2024-07-30T21:57:05.183Z,204111.9,6q8-cdK9ew,incremental,anketa,6645cf40bc81b65c5faccf1d,participant,hcpib7dulz8yg417,,,,,Kakva je kraj mene biciklom prošla djevojka?,Kraj mene je biciklom prošla vrlo lijepa djevojka.,ai,,,27,,,
,inter-stimulus,canvas.Screen,2_10_5,,,,,,response,2903.899999952322,204076.29999995232,204078.8,204111.9,207015.79999995232,207174.70000004768,2024-07-30T21:57:08.282Z,207223.1,6q8-cdK9ew,incremental,anketa,6645cf40bc81b65c5faccf1d,participant,hcpib7dulz8yg417,,,mousedown,,Kakva je kraj mene biciklom prošla djevojka?,Kraj mene je biciklom prošla vrlo lijepa djevojka.,ai,,,27,,,
,Sequence,flow.Sequence,2_10,,,,,,completion,11586.499999952328,195396.40000009537,195395.9,195429.3,207015.79999995232,207175,2024-07-30T21:57:08.282Z,207223.1,6q8-cdK9ew,incremental,anketa,6645cf40bc81b65c5faccf1d,participant,hcpib7dulz8yg417,,,,,Kakva je kraj mene biciklom prošla djevojka?,Kraj mene je biciklom prošla vrlo lijepa djevojka.,ai,,,27,,,
,context,canvas.Screen,2_11_0_0,,,,,,response,1701.3000000953616,207175.79999995232,207181.4,207223.1,208924.40000009537,209124.59999990463,2024-07-30T21:57:10.232Z,209157.1,6q8-cdK9ew,incremental,anketa,6645cf40bc81b65c5faccf1d,participant,hcpib7dulz8yg417,,,click,,Vjerojatno je tu lijepa nekad bila crkva.,Vjerojatno je tu nekad bila lijepa crkva.,lbc,,,36,,,
,Timer frame,html.Frame,2_11_0,,,,,,,1901.8000000953616,207175.40000009537,207181.4,207223.1,209124.90000009537,209125.20000004768,2024-07-30T21:57:10.233Z,209157.1,6q8-cdK9ew,incremental,anketa,6645cf40bc81b65c5faccf1d,participant,hcpib7dulz8yg417,,,,,Vjerojatno je tu lijepa nekad bila crkva.,Vjerojatno je tu nekad bila lijepa crkva.,lbc,,,36,,,
,stimulus,canvas.Screen,2_11_1_0,,,,,,response,3801.4999999046267,209125.70000004768,209123.7,209157.1,212958.59999990463,213141.29999995232,2024-07-30T21:57:14.249Z,213190.3,6q8-cdK9ew,incremental,anketa,6645cf40bc81b65c5faccf1d,participant,hcpib7dulz8yg417,,4,click @4,,Vjerojatno je tu lijepa nekad bila crkva.,Vjerojatno je tu nekad bila lijepa crkva.,lbc,,,36,,,
,Timer frame,html.Frame,2_11_1,,,,,,,3984.4999999046267,209125.40000009537,209123.7,209157.1,213141.59999990463,213141.79999995232,2024-07-30T21:57:14.249Z,213190.3,6q8-cdK9ew,incremental,anketa,6645cf40bc81b65c5faccf1d,participant,hcpib7dulz8yg417,,,,,Vjerojatno je tu lijepa nekad bila crkva.,Vjerojatno je tu nekad bila lijepa crkva.,lbc,,,36,,,
,Spremanje,canvas.Screen,2_11_2,,,,,,skipped,,213141.90000009537,,,213141.59999990463,213142,2024-07-30T21:57:14.249Z,213190.3,6q8-cdK9ew,incremental,anketa,6645cf40bc81b65c5faccf1d,participant,hcpib7dulz8yg417,,,,,Vjerojatno je tu lijepa nekad bila crkva.,Vjerojatno je tu nekad bila lijepa crkva.,lbc,,,36,,,
,Question form,html.Form,2_11_3,,,,,,skipped,,213142.09999990463,,,213141.59999990463,213142.29999995232,2024-07-30T21:57:14.250Z,213190.3,6q8-cdK9ew,incremental,anketa,6645cf40bc81b65c5faccf1d,participant,hcpib7dulz8yg417,,,,,Vjerojatno je tu lijepa nekad bila crkva.,Vjerojatno je tu nekad bila lijepa crkva.,lbc,,,36,,,
,Answer indication,canvas.Screen,2_11_4,,,,,,skipped,,213143.90000009537,,,213141.59999990463,213144.09999990463,2024-07-30T21:57:14.251Z,213190.3,6q8-cdK9ew,incremental,anketa,6645cf40bc81b65c5faccf1d,participant,hcpib7dulz8yg417,,,,,Vjerojatno je tu lijepa nekad bila crkva.,Vjerojatno je tu nekad bila lijepa crkva.,lbc,,,36,,,
,inter-stimulus,canvas.Screen,2_11_5,,,,,,response,635.2000000000116,213144.20000004768,213141.6,213190.3,213825.5,214026.20000004768,2024-07-30T21:57:15.133Z,214066.1,6q8-cdK9ew,incremental,anketa,6645cf40bc81b65c5faccf1d,participant,hcpib7dulz8yg417,,,mousedown,,Vjerojatno je tu lijepa nekad bila crkva.,Vjerojatno je tu nekad bila lijepa crkva.,lbc,,,36,,,
,Sequence,flow.Sequence,2_11,,,,,,completion,6602.399999999994,207175.29999995232,207181.4,207223.1,213825.5,214026.70000004768,2024-07-30T21:57:15.134Z,214066.1,6q8-cdK9ew,incremental,anketa,6645cf40bc81b65c5faccf1d,participant,hcpib7dulz8yg417,,,,,Vjerojatno je tu lijepa nekad bila crkva.,Vjerojatno je tu nekad bila lijepa crkva.,lbc,,,36,,,
,context,canvas.Screen,2_12_0_0,,,,,,response,4169.600000047678,214027.20000004768,214032.7,214066.1,218235.70000004768,218425,2024-07-30T21:57:19.532Z,218475.8,6q8-cdK9ew,incremental,anketa,6645cf40bc81b65c5faccf1d,participant,hcpib7dulz8yg417,,,click,,"Tko se nadaš da će napraviti prezentaciju, a Đure nacrtati sliku??","Nadaš se da će Vesna napraviti prezentaciju, a Đure nacrtati sliku..",csi,42,44,2,,,
,Timer frame,html.Frame,2_12_0,,,,,,,4359.100000047678,214027,214032.7,214066.1,218425.20000004768,218425.40000009537,2024-07-30T21:57:19.533Z,218475.8,6q8-cdK9ew,incremental,anketa,6645cf40bc81b65c5faccf1d,participant,hcpib7dulz8yg417,,,,,"Tko se nadaš da će napraviti prezentaciju, a Đure nacrtati sliku??","Nadaš se da će Vesna napraviti prezentaciju, a Đure nacrtati sliku..",csi,42,44,2,,,
,stimulus,canvas.Screen,2_12_1_0,,,,,,response,3726.7000000000116,218425.90000009537,218425.8,218475.8,222202.5,222360.20000004768,2024-07-30T21:57:23.467Z,222400.8,6q8-cdK9ew,incremental,anketa,6645cf40bc81b65c5faccf1d,participant,hcpib7dulz8yg417,,2,click @2,,"Tko se nadaš da će napraviti prezentaciju, a Đure nacrtati sliku??","Nadaš se da će Vesna napraviti prezentaciju, a Đure nacrtati sliku..",csi,42,44,2,,,
,Timer frame,html.Frame,2_12_1,,,,,,,3884.7000000000116,218425.59999990463,218425.8,218475.8,222360.5,222360.70000004768,2024-07-30T21:57:23.468Z,222400.8,6q8-cdK9ew,incremental,anketa,6645cf40bc81b65c5faccf1d,participant,hcpib7dulz8yg417,,,,,"Tko se nadaš da će napraviti prezentaciju, a Đure nacrtati sliku??","Nadaš se da će Vesna napraviti prezentaciju, a Đure nacrtati sliku..",csi,42,44,2,,,
,Spremanje,canvas.Screen,2_12_2,,,,,,skipped,,222361,,,222360.5,222361.09999990463,2024-07-30T21:57:23.468Z,222400.8,6q8-cdK9ew,incremental,anketa,6645cf40bc81b65c5faccf1d,participant,hcpib7dulz8yg417,,,,,"Tko se nadaš da će napraviti prezentaciju, a Đure nacrtati sliku??","Nadaš se da će Vesna napraviti prezentaciju, a Đure nacrtati sliku..",csi,42,44,2,,,
,Question form,html.Form,2_12_3,,,,,,skipped,,222361.29999995232,,,222360.5,222361.5,2024-07-30T21:57:23.469Z,222400.8,6q8-cdK9ew,incremental,anketa,6645cf40bc81b65c5faccf1d,participant,hcpib7dulz8yg417,,,,,"Tko se nadaš da će napraviti prezentaciju, a Đure nacrtati sliku??","Nadaš se da će Vesna napraviti prezentaciju, a Đure nacrtati sliku..",csi,42,44,2,,,
,Answer indication,canvas.Screen,2_12_4,,,,,,skipped,,222363.40000009537,,,222360.5,222363.59999990463,2024-07-30T21:57:23.471Z,222400.8,6q8-cdK9ew,incremental,anketa,6645cf40bc81b65c5faccf1d,participant,hcpib7dulz8yg417,,,,,"Tko se nadaš da će napraviti prezentaciju, a Đure nacrtati sliku??","Nadaš se da će Vesna napraviti prezentaciju, a Đure nacrtati sliku..",csi,42,44,2,,,
,inter-stimulus,canvas.Screen,2_12_5,,,,,,response,968.2999999046442,222363.79999995232,222367.4,222400.8,223369.09999990463,223570.29999995232,2024-07-30T21:57:24.678Z,223614.9,6q8-cdK9ew,incremental,anketa,6645cf40bc81b65c5faccf1d,participant,hcpib7dulz8yg417,,,mousedown,,"Tko se nadaš da će napraviti prezentaciju, a Đure nacrtati sliku??","Nadaš se da će Vesna napraviti prezentaciju, a Đure nacrtati sliku..",csi,42,44,2,,,
,Sequence,flow.Sequence,2_12,,,,,,completion,9302.999999904627,214026.90000009537,214032.7,214066.1,223369.09999990463,223570.70000004768,2024-07-30T21:57:24.678Z,223614.9,6q8-cdK9ew,incremental,anketa,6645cf40bc81b65c5faccf1d,participant,hcpib7dulz8yg417,,,,,"Tko se nadaš da će napraviti prezentaciju, a Đure nacrtati sliku??","Nadaš se da će Vesna napraviti prezentaciju, a Đure nacrtati sliku..",csi,42,44,2,,,
,context,canvas.Screen,2_13_0_0,,,,,,response,4929.3000000476895,223571.20000004768,223573.1,223614.9,228544.20000004768,228759.59999990463,2024-07-30T21:57:29.867Z,228792.4,6q8-cdK9ew,incremental,anketa,6645cf40bc81b65c5faccf1d,participant,hcpib7dulz8yg417,,,click,,Lijepe su samo crne čizme bile u ovom ormaru.,Samo su crne čizme bile lijepe stvari u ovom ormaru.,di,,,34,CRNA; CRNE; CRNI; CRNO; CRN,Boja cipela je?,
,Timer frame,html.Frame,2_13_0,,,,,,,5145.100000000006,223571,223573.1,223614.9,228760,228760.20000004768,2024-07-30T21:57:29.867Z,228792.4,6q8-cdK9ew,incremental,anketa,6645cf40bc81b65c5faccf1d,participant,hcpib7dulz8yg417,,,,,Lijepe su samo crne čizme bile u ovom ormaru.,Samo su crne čizme bile lijepe stvari u ovom ormaru.,di,,,34,CRNA; CRNE; CRNI; CRNO; CRN,Boja cipela je?,
,stimulus,canvas.Screen,2_13_1_0,,,,,,response,4578.600000000006,228760.70000004768,228767.4,228792.4,233371,233559.09999990463,2024-07-30T21:57:34.666Z,233608.8,6q8-cdK9ew,incremental,anketa,6645cf40bc81b65c5faccf1d,participant,hcpib7dulz8yg417,,4,click @4,,Lijepe su samo crne čizme bile u ovom ormaru.,Samo su crne čizme bile lijepe stvari u ovom ormaru.,di,,,34,CRNA; CRNE; CRNI; CRNO; CRN,Boja cipela je?,
,Timer frame,html.Frame,2_13_1,,,,,,,4767.000000095373,228760.40000009537,228767.4,228792.4,233559.40000009537,233559.70000004768,2024-07-30T21:57:34.667Z,233608.8,6q8-cdK9ew,incremental,anketa,6645cf40bc81b65c5faccf1d,participant,hcpib7dulz8yg417,,,,,Lijepe su samo crne čizme bile u ovom ormaru.,Samo su crne čizme bile lijepe stvari u ovom ormaru.,di,,,34,CRNA; CRNE; CRNI; CRNO; CRN,Boja cipela je?,
,Spremanje,canvas.Screen,2_13_2,,,,,,response,1020.6000000953791,233559.90000009537,233559.1,233608.8,234629.40000009537,234846.70000004768,2024-07-30T21:57:35.954Z,234860.7,6q8-cdK9ew,incremental,anketa,6645cf40bc81b65c5faccf1d,participant,hcpib7dulz8yg417,,,mousedown,,Lijepe su samo crne čizme bile u ovom ormaru.,Samo su crne čizme bile lijepe stvari u ovom ormaru.,di,,,34,CRNA; CRNE; CRNI; CRNO; CRN,Boja cipela je?,
,Question form,html.Form,2_13_3,,,,,,form submission,6371.399999904621,234847.09999990463,234852.4,234860.7,241232.09999990463,241232.59999990463,2024-07-30T21:57:42.340Z,241270.1,6q8-cdK9ew,incremental,anketa,6645cf40bc81b65c5faccf1d,participant,hcpib7dulz8yg417,,,,Crna,Lijepe su samo crne čizme bile u ovom ormaru.,Samo su crne čizme bile lijepe stvari u ovom ormaru.,di,,,34,CRNA; CRNE; CRNI; CRNO; CRN,Boja cipela je?,
,Answer indication,canvas.Screen,2_13_4,,,,,,response,2235.9999999046267,241234.70000004768,241253.524,241270.1,243506.09999990463,243758.90000009537,2024-07-30T21:57:44.866Z,243803.8,6q8-cdK9ew,incremental,anketa,6645cf40bc81b65c5faccf1d,participant,hcpib7dulz8yg417,,,mousedown,,Lijepe su samo crne čizme bile u ovom ormaru.,Samo su crne čizme bile lijepe stvari u ovom ormaru.,di,,,34,CRNA; CRNE; CRNI; CRNO; CRN,Boja cipela je?,
,inter-stimulus,canvas.Screen,2_13_5,,,,,,response,1311.2000000000116,243759.09999990463,243770.5,243803.8,245115,245309.90000009537,2024-07-30T21:57:46.417Z,245337.6,6q8-cdK9ew,incremental,anketa,6645cf40bc81b65c5faccf1d,participant,hcpib7dulz8yg417,,,mousedown,,Lijepe su samo crne čizme bile u ovom ormaru.,Samo su crne čizme bile lijepe stvari u ovom ormaru.,di,,,34,CRNA; CRNE; CRNI; CRNO; CRN,Boja cipela je?,
,Sequence,flow.Sequence,2_13,,,,,,completion,21500.100000000006,223570.79999995232,223573.1,223614.9,245115,245310.20000004768,2024-07-30T21:57:46.417Z,245337.6,6q8-cdK9ew,incremental,anketa,6645cf40bc81b65c5faccf1d,participant,hcpib7dulz8yg417,,,,,Lijepe su samo crne čizme bile u ovom ormaru.,Samo su crne čizme bile lijepe stvari u ovom ormaru.,di,,,34,CRNA; CRNE; CRNI; CRNO; CRN,Boja cipela je?,
,context,canvas.Screen,2_14_0_0,,,,,,response,2194.8000000953616,245310.5,245312.6,245337.6,247532.40000009537,247749.40000009537,2024-07-30T21:57:48.857Z,247796.6,6q8-cdK9ew,incremental,anketa,6645cf40bc81b65c5faccf1d,participant,hcpib7dulz8yg417,,,click,,Što mama hvali kćer koja je u školi dobila?,Mama hvali kćer koja je u školi dobila peticu.,cnp,,,11,,,
,Timer frame,html.Frame,2_14_0,,,,,,,2411.9999999046267,245310.29999995232,245312.6,245337.6,247749.59999990463,247749.90000009537,2024-07-30T21:57:48.857Z,247796.6,6q8-cdK9ew,incremental,anketa,6645cf40bc81b65c5faccf1d,participant,hcpib7dulz8yg417,,,,,Što mama hvali kćer koja je u školi dobila?,Mama hvali kćer koja je u školi dobila peticu.,cnp,,,11,,,
,stimulus,canvas.Screen,2_14_1_0,,,,,,response,6270.100000047678,247750.29999995232,247746.5,247796.6,254066.70000004768,254248.90000009537,2024-07-30T21:57:55.356Z,254280.4,6q8-cdK9ew,incremental,anketa,6645cf40bc81b65c5faccf1d,participant,hcpib7dulz8yg417,,2,click @2,,Što mama hvali kćer koja je u školi dobila?,Mama hvali kćer koja je u školi dobila peticu.,cnp,,,11,,,
,Timer frame,html.Frame,2_14_1,,,,,,,6452.600000047678,247750,247746.5,247796.6,254249.20000004768,254249.40000009537,2024-07-30T21:57:55.357Z,254280.4,6q8-cdK9ew,incremental,anketa,6645cf40bc81b65c5faccf1d,participant,hcpib7dulz8yg417,,,,,Što mama hvali kćer koja je u školi dobila?,Mama hvali kćer koja je u školi dobila peticu.,cnp,,,11,,,
,Spremanje,canvas.Screen,2_14_2,,,,,,skipped,,254249.59999990463,,,254249.20000004768,254249.79999995232,2024-07-30T21:57:55.357Z,254280.4,6q8-cdK9ew,incremental,anketa,6645cf40bc81b65c5faccf1d,participant,hcpib7dulz8yg417,,,,,Što mama hvali kćer koja je u školi dobila?,Mama hvali kćer koja je u školi dobila peticu.,cnp,,,11,,,
,Question form,html.Form,2_14_3,,,,,,skipped,,254249.90000009537,,,254249.20000004768,254250,2024-07-30T21:57:55.357Z,254280.4,6q8-cdK9ew,incremental,anketa,6645cf40bc81b65c5faccf1d,participant,hcpib7dulz8yg417,,,,,Što mama hvali kćer koja je u školi dobila?,Mama hvali kćer koja je u školi dobila peticu.,cnp,,,11,,,
,Answer indication,canvas.Screen,2_14_4,,,,,,skipped,,254252.09999990463,,,254249.20000004768,254252.29999995232,2024-07-30T21:57:55.360Z,254280.4,6q8-cdK9ew,incremental,anketa,6645cf40bc81b65c5faccf1d,participant,hcpib7dulz8yg417,,,,,Što mama hvali kćer koja je u školi dobila?,Mama hvali kćer koja je u školi dobila peticu.,cnp,,,11,,,
,inter-stimulus,canvas.Screen,2_14_5,,,,,,response,611.3999999523221,254252.5,254255.5,254280.4,254891.79999995232,255100.70000004768,2024-07-30T21:57:56.208Z,255155.7,6q8-cdK9ew,incremental,anketa,6645cf40bc81b65c5faccf1d,participant,hcpib7dulz8yg417,,,mousedown,,Što mama hvali kćer koja je u školi dobila?,Mama hvali kćer koja je u školi dobila peticu.,cnp,,,11,,,
,Sequence,flow.Sequence,2_14,,,,,,completion,9554.19999995231,245310.29999995232,245312.6,245337.6,254891.79999995232,255101.20000004768,2024-07-30T21:57:56.208Z,255155.7,6q8-cdK9ew,incremental,anketa,6645cf40bc81b65c5faccf1d,participant,hcpib7dulz8yg417,,,,,Što mama hvali kćer koja je u školi dobila?,Mama hvali kćer koja je u školi dobila peticu.,cnp,,,11,,,
,context,canvas.Screen,2_15_0_0,,,,,,response,2653.700000095356,255101.70000004768,255105.5,255155.7,257809.40000009537,258034.70000004768,2024-07-30T21:57:59.142Z,258064.8,6q8-cdK9ew,incremental,anketa,6645cf40bc81b65c5faccf1d,participant,hcpib7dulz8yg417,,,click,,Komu tužno je gledati da ljudi i dalje daju novac??,Tužno je gledati da ljudi i dalje daju novac šarlatanima..,si,38,33,19,,,
,Timer frame,html.Frame,2_15_0,,,,,,,2879.200000095356,255101.5,255105.5,255155.7,258034.90000009537,258035.20000004768,2024-07-30T21:57:59.142Z,258064.8,6q8-cdK9ew,incremental,anketa,6645cf40bc81b65c5faccf1d,participant,hcpib7dulz8yg417,,,,,Komu tužno je gledati da ljudi i dalje daju novac??,Tužno je gledati da ljudi i dalje daju novac šarlatanima..,si,38,33,19,,,
,stimulus,canvas.Screen,2_15_1_0,,,,,,response,3070.2000000000116,258035.70000004768,258031.5,258064.8,261135,261368.20000004768,2024-07-30T21:58:02.475Z,261416,6q8-cdK9ew,incremental,anketa,6645cf40bc81b65c5faccf1d,participant,hcpib7dulz8yg417,,2,click @2,,Komu tužno je gledati da ljudi i dalje daju novac??,Tužno je gledati da ljudi i dalje daju novac šarlatanima..,si,38,33,19,,,
,Timer frame,html.Frame,2_15_1,,,,,,,3303.600000095379,258035.40000009537,258031.5,258064.8,261368.40000009537,261368.59999990463,2024-07-30T21:58:02.476Z,261416,6q8-cdK9ew,incremental,anketa,6645cf40bc81b65c5faccf1d,participant,hcpib7dulz8yg417,,,,,Komu tužno je gledati da ljudi i dalje daju novac??,Tužno je gledati da ljudi i dalje daju novac šarlatanima..,si,38,33,19,,,
,Spremanje,canvas.Screen,2_15_2,,,,,,skipped,,261368.70000004768,,,261368.40000009537,261368.90000009537,2024-07-30T21:58:02.476Z,261416,6q8-cdK9ew,incremental,anketa,6645cf40bc81b65c5faccf1d,participant,hcpib7dulz8yg417,,,,,Komu tužno je gledati da ljudi i dalje daju novac??,Tužno je gledati da ljudi i dalje daju novac šarlatanima..,si,38,33,19,,,
,Question form,html.Form,2_15_3,,,,,,skipped,,261369,,,261368.40000009537,261369.20000004768,2024-07-30T21:58:02.476Z,261416,6q8-cdK9ew,incremental,anketa,6645cf40bc81b65c5faccf1d,participant,hcpib7dulz8yg417,,,,,Komu tužno je gledati da ljudi i dalje daju novac??,Tužno je gledati da ljudi i dalje daju novac šarlatanima..,si,38,33,19,,,
,Answer indication,canvas.Screen,2_15_4,,,,,,skipped,,261370.5,,,261368.40000009537,261370.70000004768,2024-07-30T21:58:02.478Z,261416,6q8-cdK9ew,incremental,anketa,6645cf40bc81b65c5faccf1d,participant,hcpib7dulz8yg417,,,,,Komu tužno je gledati da ljudi i dalje daju novac??,Tužno je gledati da ljudi i dalje daju novac šarlatanima..,si,38,33,19,,,
,inter-stimulus,canvas.Screen,2_15_5,,,,,,response,802.2000000476837,261370.90000009537,261365.8,261416,262218.2000000477,262433.7999999523,2024-07-30T21:58:03.541Z,262465,6q8-cdK9ew,incremental,anketa,6645cf40bc81b65c5faccf1d,participant,hcpib7dulz8yg417,,,mousedown,,Komu tužno je gledati da ljudi i dalje daju novac??,Tužno je gledati da ljudi i dalje daju novac šarlatanima..,si,38,33,19,,,
,Sequence,flow.Sequence,2_15,,,,,,completion,7062.500000047672,255101.29999995232,255105.5,255155.7,262218.2000000477,262434.5,2024-07-30T21:58:03.542Z,262465,6q8-cdK9ew,incremental,anketa,6645cf40bc81b65c5faccf1d,participant,hcpib7dulz8yg417,,,,,Komu tužno je gledati da ljudi i dalje daju novac??,Tužno je gledati da ljudi i dalje daju novac šarlatanima..,si,38,33,19,,,
,context,canvas.Screen,2_16_0_0,,,,,,response,4071,262434.90000009537,262440,262465,266536,266767.5,2024-07-30T21:58:07.875Z,266815.5,6q8-cdK9ew,incremental,anketa,6645cf40bc81b65c5faccf1d,participant,hcpib7dulz8yg417,,,click,,Tko ono da je prodao svoj stan za toliki novac nevjerojatno je??,Ono da je Goran prodao svoj stan za toliki novac nevjerojatno je..,si,30,32,17,,,
,Timer frame,html.Frame,2_16_0,,,,,,,4302.799999952316,262434.7000000477,262440,262465,266767.7999999523,266768.09999990463,2024-07-30T21:58:07.875Z,266815.5,6q8-cdK9ew,incremental,anketa,6645cf40bc81b65c5faccf1d,participant,hcpib7dulz8yg417,,,,,Tko ono da je prodao svoj stan za toliki novac nevjerojatno je??,Ono da je Goran prodao svoj stan za toliki novac nevjerojatno je..,si,30,32,17,,,
,stimulus,canvas.Screen,2_16_1_0,,,,,,response,4279.5,266768.59999990463,266773.8,266815.5,271095,271351.90000009537,2024-07-30T21:58:12.459Z,271383.6,6q8-cdK9ew,incremental,anketa,6645cf40bc81b65c5faccf1d,participant,hcpib7dulz8yg417,,3,click @3,,Tko ono da je prodao svoj stan za toliki novac nevjerojatno je??,Ono da je Goran prodao svoj stan za toliki novac nevjerojatno je..,si,30,32,17,,,
,Timer frame,html.Frame,2_16_1,,,,,,,4536.700000047684,266768.2999999523,266773.8,266815.5,271352.2000000477,271352.40000009537,2024-07-30T21:58:12.460Z,271383.6,6q8-cdK9ew,incremental,anketa,6645cf40bc81b65c5faccf1d,participant,hcpib7dulz8yg417,,,,,Tko ono da je prodao svoj stan za toliki novac nevjerojatno je??,Ono da je Goran prodao svoj stan za toliki novac nevjerojatno je..,si,30,32,17,,,
,Spremanje,canvas.Screen,2_16_2,,,,,,skipped,,271352.59999990463,,,271352.2000000477,271352.7999999523,2024-07-30T21:58:12.460Z,271383.6,6q8-cdK9ew,incremental,anketa,6645cf40bc81b65c5faccf1d,participant,hcpib7dulz8yg417,,,,,Tko ono da je prodao svoj stan za toliki novac nevjerojatno je??,Ono da je Goran prodao svoj stan za toliki novac nevjerojatno je..,si,30,32,17,,,
,Question form,html.Form,2_16_3,,,,,,skipped,,271352.90000009537,,,271352.2000000477,271353,2024-07-30T21:58:12.460Z,271383.6,6q8-cdK9ew,incremental,anketa,6645cf40bc81b65c5faccf1d,participant,hcpib7dulz8yg417,,,,,Tko ono da je prodao svoj stan za toliki novac nevjerojatno je??,Ono da je Goran prodao svoj stan za toliki novac nevjerojatno je..,si,30,32,17,,,
,Answer indication,canvas.Screen,2_16_4,,,,,,skipped,,271355,,,271352.2000000477,271355.2000000477,2024-07-30T21:58:12.463Z,271383.6,6q8-cdK9ew,incremental,anketa,6645cf40bc81b65c5faccf1d,participant,hcpib7dulz8yg417,,,,,Tko ono da je prodao svoj stan za toliki novac nevjerojatno je??,Ono da je Goran prodao svoj stan za toliki novac nevjerojatno je..,si,30,32,17,,,
,inter-stimulus,canvas.Screen,2_16_5,,,,,,response,603.100000047707,271355.40000009537,271350.2,271383.6,271986.7000000477,272148,2024-07-30T21:58:13.255Z,272191.8,6q8-cdK9ew,incremental,anketa,6645cf40bc81b65c5faccf1d,participant,hcpib7dulz8yg417,,,mousedown,,Tko ono da je prodao svoj stan za toliki novac nevjerojatno je??,Ono da je Goran prodao svoj stan za toliki novac nevjerojatno je..,si,30,32,17,,,
,Sequence,flow.Sequence,2_16,,,,,,completion,9521.700000047684,262434.59999990463,262440,262465,271986.7000000477,272148.40000009537,2024-07-30T21:58:13.256Z,272191.8,6q8-cdK9ew,incremental,anketa,6645cf40bc81b65c5faccf1d,participant,hcpib7dulz8yg417,,,,,Tko ono da je prodao svoj stan za toliki novac nevjerojatno je??,Ono da je Goran prodao svoj stan za toliki novac nevjerojatno je..,si,30,32,17,,,
,context,canvas.Screen,2_17_0_0,,,,,,response,2003.499999952328,272149,272150,272191.8,274195.2999999523,274377.40000009537,2024-07-30T21:58:15.485Z,274408.3,6q8-cdK9ew,incremental,anketa,6645cf40bc81b65c5faccf1d,participant,hcpib7dulz8yg417,,,click,,Vidimo plažu od koje smo bili daleko.,Vidimo plažu od koje smo bili daleko.,ai,,,25,,,
,Timer frame,html.Frame,2_17_0,,,,,,,2185.9000000476954,272148.7000000477,272150,272191.8,274377.7000000477,274378,2024-07-30T21:58:15.485Z,274408.3,6q8-cdK9ew,incremental,anketa,6645cf40bc81b65c5faccf1d,participant,hcpib7dulz8yg417,,,,,Vidimo plažu od koje smo bili daleko.,Vidimo plažu od koje smo bili daleko.,ai,,,25,,,
,stimulus,canvas.Screen,2_17_1_0,,,,,,response,4379.499999952328,274378.5,274383.3,274408.3,278787.7999999523,279021,2024-07-30T21:58:20.128Z,279067.1,6q8-cdK9ew,incremental,anketa,6645cf40bc81b65c5faccf1d,participant,hcpib7dulz8yg417,,4,click @4,,Vidimo plažu od koje smo bili daleko.,Vidimo plažu od koje smo bili daleko.,ai,,,25,,,
,Timer frame,html.Frame,2_17_1,,,,,,,4612.999999952328,274378.2000000477,274383.3,274408.3,279021.2999999523,279021.5,2024-07-30T21:58:20.129Z,279067.1,6q8-cdK9ew,incremental,anketa,6645cf40bc81b65c5faccf1d,participant,hcpib7dulz8yg417,,,,,Vidimo plažu od koje smo bili daleko.,Vidimo plažu od koje smo bili daleko.,ai,,,25,,,
,Spremanje,canvas.Screen,2_17_2,,,,,,skipped,,279021.59999990463,,,279021.2999999523,279021.7999999523,2024-07-30T21:58:20.129Z,279067.1,6q8-cdK9ew,incremental,anketa,6645cf40bc81b65c5faccf1d,participant,hcpib7dulz8yg417,,,,,Vidimo plažu od koje smo bili daleko.,Vidimo plažu od koje smo bili daleko.,ai,,,25,,,
,Question form,html.Form,2_17_3,,,,,,skipped,,279022,,,279021.2999999523,279022,2024-07-30T21:58:20.129Z,279067.1,6q8-cdK9ew,incremental,anketa,6645cf40bc81b65c5faccf1d,participant,hcpib7dulz8yg417,,,,,Vidimo plažu od koje smo bili daleko.,Vidimo plažu od koje smo bili daleko.,ai,,,25,,,
,Answer indication,canvas.Screen,2_17_4,,,,,,skipped,,279023.40000009537,,,279021.2999999523,279023.7000000477,2024-07-30T21:58:20.131Z,279067.1,6q8-cdK9ew,incremental,anketa,6645cf40bc81b65c5faccf1d,participant,hcpib7dulz8yg417,,,,,Vidimo plažu od koje smo bili daleko.,Vidimo plažu od koje smo bili daleko.,ai,,,25,,,
,inter-stimulus,canvas.Screen,2_17_5,,,,,,response,595.9000000000233,279023.90000009537,279017.1,279067.1,279663,279905,2024-07-30T21:58:21.012Z,279933.8,6q8-cdK9ew,incremental,anketa,6645cf40bc81b65c5faccf1d,participant,hcpib7dulz8yg417,,,mousedown,,Vidimo plažu od koje smo bili daleko.,Vidimo plažu od koje smo bili daleko.,ai,,,25,,,
,Sequence,flow.Sequence,2_17,,,,,,completion,7471.200000000012,272148.59999990463,272150,272191.8,279663,279905.5,2024-07-30T21:58:21.013Z,279933.8,6q8-cdK9ew,incremental,anketa,6645cf40bc81b65c5faccf1d,participant,hcpib7dulz8yg417,,,,,Vidimo plažu od koje smo bili daleko.,Vidimo plažu od koje smo bili daleko.,ai,,,25,,,
,context,canvas.Screen,2_18_0_0,,,,,,response,1721.100000095379,279906.09999990463,279908.8,279933.8,281654.90000009537,281870.2000000477,2024-07-30T21:58:22.977Z,281917.5,6q8-cdK9ew,incremental,anketa,6645cf40bc81b65c5faccf1d,participant,hcpib7dulz8yg417,,,click,,Vidimo plažu daleko od koje smo bili.,Vidimo plažu od koje smo bili daleko.,ai,,,24,,,
,Timer frame,html.Frame,2_18_0,,,,,,,1936.600000095379,279905.7999999523,279908.8,279933.8,281870.40000009537,281870.59999990463,2024-07-30T21:58:22.978Z,281917.5,6q8-cdK9ew,incremental,anketa,6645cf40bc81b65c5faccf1d,participant,hcpib7dulz8yg417,,,,,Vidimo plažu daleko od koje smo bili.,Vidimo plažu od koje smo bili daleko.,ai,,,24,,,
,stimulus,canvas.Screen,2_18_1_0,,,,,,response,4771.5,281871.09999990463,281875.9,281917.5,286689,286920.40000009537,2024-07-30T21:58:28.028Z,286951.3,6q8-cdK9ew,incremental,anketa,6645cf40bc81b65c5faccf1d,participant,hcpib7dulz8yg417,,4,click @4,,Vidimo plažu daleko od koje smo bili.,Vidimo plažu od koje smo bili daleko.,ai,,,24,,,
,Timer frame,html.Frame,2_18_1,,,,,,,5003.200000047684,281870.7999999523,281875.9,281917.5,286920.7000000477,286920.90000009537,2024-07-30T21:58:28.028Z,286951.3,6q8-cdK9ew,incremental,anketa,6645cf40bc81b65c5faccf1d,participant,hcpib7dulz8yg417,,,,,Vidimo plažu daleko od koje smo bili.,Vidimo plažu od koje smo bili daleko.,ai,,,24,,,
,Spremanje,canvas.Screen,2_18_2,,,,,,skipped,,286921.09999990463,,,286920.7000000477,286921.2000000477,2024-07-30T21:58:28.028Z,286951.3,6q8-cdK9ew,incremental,anketa,6645cf40bc81b65c5faccf1d,participant,hcpib7dulz8yg417,,,,,Vidimo plažu daleko od koje smo bili.,Vidimo plažu od koje smo bili daleko.,ai,,,24,,,
,Question form,html.Form,2_18_3,,,,,,skipped,,286921.40000009537,,,286920.7000000477,286921.5,2024-07-30T21:58:28.029Z,286951.3,6q8-cdK9ew,incremental,anketa,6645cf40bc81b65c5faccf1d,participant,hcpib7dulz8yg417,,,,,Vidimo plažu daleko od koje smo bili.,Vidimo plažu od koje smo bili daleko.,ai,,,24,,,
,Answer indication,canvas.Screen,2_18_4,,,,,,skipped,,286923.5,,,286920.7000000477,286923.7000000477,2024-07-30T21:58:28.031Z,286951.3,6q8-cdK9ew,incremental,anketa,6645cf40bc81b65c5faccf1d,participant,hcpib7dulz8yg417,,,,,Vidimo plažu daleko od koje smo bili.,Vidimo plažu od koje smo bili daleko.,ai,,,24,,,
,inter-stimulus,canvas.Screen,2_18_5,,,,,,response,537.7000000000116,286924,286917.9,286951.3,287489,287701.5,2024-07-30T21:58:28.809Z,287759.6,6q8-cdK9ew,incremental,anketa,6645cf40bc81b65c5faccf1d,participant,hcpib7dulz8yg417,,,mousedown,,Vidimo plažu daleko od koje smo bili.,Vidimo plažu od koje smo bili daleko.,ai,,,24,,,
,Sequence,flow.Sequence,2_18,,,,,,completion,7555.200000000012,279905.7000000477,279908.8,279933.8,287489,287701.90000009537,2024-07-30T21:58:28.809Z,287759.6,6q8-cdK9ew,incremental,anketa,6645cf40bc81b65c5faccf1d,participant,hcpib7dulz8yg417,,,,,Vidimo plažu daleko od koje smo bili.,Vidimo plažu od koje smo bili daleko.,ai,,,24,,,
,context,canvas.Screen,2_19_0_0,,,,,,response,1204.4999999046559,287702.40000009537,287709.6,287759.6,288964.09999990463,289187.7999999523,2024-07-30T21:58:30.295Z,289218,6q8-cdK9ew,incremental,anketa,6645cf40bc81b65c5faccf1d,participant,hcpib7dulz8yg417,,,click,,O čemu je Ivo cijelu večer pričao?,Ivo je cijelu večer pričao o autima.,gf,,,47,,,
,Timer frame,html.Frame,2_19_0,,,,,,,1428.4999999046559,287702.2000000477,287709.6,287759.6,289188.09999990463,289188.40000009537,2024-07-30T21:58:30.296Z,289218,6q8-cdK9ew,incremental,anketa,6645cf40bc81b65c5faccf1d,participant,hcpib7dulz8yg417,,,,,O čemu je Ivo cijelu večer pričao?,Ivo je cijelu večer pričao o autima.,gf,,,47,,,
,stimulus,canvas.Screen,2_19_1_0,,,,,,response,2579.9000000953674,289188.90000009537,289193,289218,291797.90000009537,292040.90000009537,2024-07-30T21:58:33.148Z,292085.4,6q8-cdK9ew,incremental,anketa,6645cf40bc81b65c5faccf1d,participant,hcpib7dulz8yg417,,7,click @7,,O čemu je Ivo cijelu večer pričao?,Ivo je cijelu večer pričao o autima.,gf,,,47,,,
,Timer frame,html.Frame,2_19_1,,,,,,,2823.2000000476837,289188.59999990463,289193,289218,292041.2000000477,292041.40000009537,2024-07-30T21:58:33.149Z,292085.4,6q8-cdK9ew,incremental,anketa,6645cf40bc81b65c5faccf1d,participant,hcpib7dulz8yg417,,,,,O čemu je Ivo cijelu večer pričao?,Ivo je cijelu večer pričao o autima.,gf,,,47,,,
,Spremanje,canvas.Screen,2_19_2,,,,,,skipped,,292041.5,,,292041.2000000477,292041.59999990463,2024-07-30T21:58:33.149Z,292085.4,6q8-cdK9ew,incremental,anketa,6645cf40bc81b65c5faccf1d,participant,hcpib7dulz8yg417,,,,,O čemu je Ivo cijelu večer pričao?,Ivo je cijelu večer pričao o autima.,gf,,,47,,,
,Question form,html.Form,2_19_3,,,,,,skipped,,292041.7999999523,,,292041.2000000477,292042,2024-07-30T21:58:33.149Z,292085.4,6q8-cdK9ew,incremental,anketa,6645cf40bc81b65c5faccf1d,participant,hcpib7dulz8yg417,,,,,O čemu je Ivo cijelu večer pričao?,Ivo je cijelu večer pričao o autima.,gf,,,47,,,
,Answer indication,canvas.Screen,2_19_4,,,,,,skipped,,292043.2999999523,,,292041.2000000477,292044,2024-07-30T21:58:33.151Z,292085.4,6q8-cdK9ew,incremental,anketa,6645cf40bc81b65c5faccf1d,participant,hcpib7dulz8yg417,,,,,O čemu je Ivo cijelu večer pričao?,Ivo je cijelu večer pričao o autima.,gf,,,47,,,
,inter-stimulus,canvas.Screen,2_19_5,,,,,,response,687.899999952293,292044.09999990463,292035.4,292085.4,292773.2999999523,292988.59999990463,2024-07-30T21:58:34.096Z,293018.7,6q8-cdK9ew,incremental,anketa,6645cf40bc81b65c5faccf1d,participant,hcpib7dulz8yg417,,,mousedown,,O čemu je Ivo cijelu večer pričao?,Ivo je cijelu večer pričao o autima.,gf,,,47,,,
,Sequence,flow.Sequence,2_19,,,,,,completion,5013.69999995234,287702,287709.6,287759.6,292773.2999999523,292989.09999990463,2024-07-30T21:58:34.096Z,293018.7,6q8-cdK9ew,incremental,anketa,6645cf40bc81b65c5faccf1d,participant,hcpib7dulz8yg417,,,,,O čemu je Ivo cijelu večer pričao?,Ivo je cijelu večer pričao o autima.,gf,,,47,,,
,context,canvas.Screen,2_20_0_0,,,,,,response,2271.2999999999884,292989.7000000477,292993.7,293018.7,295290,295524.2000000477,2024-07-30T21:58:36.632Z,295569,6q8-cdK9ew,incremental,anketa,6645cf40bc81b65c5faccf1d,participant,hcpib7dulz8yg417,,,click,,Čega si gledao prepričavanje?,Gledao si prepričavanje filma.,di,,,31,,,
,Timer frame,html.Frame,2_20_0,,,,,,,2505.700000095356,292989.40000009537,292993.7,293018.7,295524.40000009537,295524.7000000477,2024-07-30T21:58:36.632Z,295569,6q8-cdK9ew,incremental,anketa,6645cf40bc81b65c5faccf1d,participant,hcpib7dulz8yg417,,,,,Čega si gledao prepričavanje?,Gledao si prepričavanje filma.,di,,,31,,,
,stimulus,canvas.Screen,2_20_1_0,,,,,,response,2988.4000000953674,295525.09999990463,295527.3,295569,298557.40000009537,298775.5,2024-07-30T21:58:39.883Z,298811,6q8-cdK9ew,incremental,anketa,6645cf40bc81b65c5faccf1d,participant,hcpib7dulz8yg417,,3,click @3,,Čega si gledao prepričavanje?,Gledao si prepričavanje filma.,di,,,31,,,
,Timer frame,html.Frame,2_20_1,,,,,,,3206.7999999523163,295524.7999999523,295527.3,295569,298775.7999999523,298776.09999990463,2024-07-30T21:58:39.883Z,298811,6q8-cdK9ew,incremental,anketa,6645cf40bc81b65c5faccf1d,participant,hcpib7dulz8yg417,,,,,Čega si gledao prepričavanje?,Gledao si prepričavanje filma.,di,,,31,,,
,Spremanje,canvas.Screen,2_20_2,,,,,,skipped,,298776.2999999523,,,298775.7999999523,298776.5,2024-07-30T21:58:39.884Z,298811,6q8-cdK9ew,incremental,anketa,6645cf40bc81b65c5faccf1d,participant,hcpib7dulz8yg417,,,,,Čega si gledao prepričavanje?,Gledao si prepričavanje filma.,di,,,31,,,
,Question form,html.Form,2_20_3,,,,,,skipped,,298776.5,,,298775.7999999523,298776.7000000477,2024-07-30T21:58:39.884Z,298811,6q8-cdK9ew,incremental,anketa,6645cf40bc81b65c5faccf1d,participant,hcpib7dulz8yg417,,,,,Čega si gledao prepričavanje?,Gledao si prepričavanje filma.,di,,,31,,,
,Answer indication,canvas.Screen,2_20_4,,,,,,skipped,,298778.90000009537,,,298775.7999999523,298779,2024-07-30T21:58:39.886Z,298811,6q8-cdK9ew,incremental,anketa,6645cf40bc81b65c5faccf1d,participant,hcpib7dulz8yg417,,,,,Čega si gledao prepričavanje?,Gledao si prepričavanje filma.,di,,,31,,,
,inter-stimulus,canvas.Screen,2_20_5,,,,,,response,613.0999999046326,298779.2999999523,298777.6,298811,299424.09999990463,299636.59999990463,2024-07-30T21:58:40.744Z,299669.4,6q8-cdK9ew,incremental,anketa,6645cf40bc81b65c5faccf1d,participant,hcpib7dulz8yg417,,,mousedown,,Čega si gledao prepričavanje?,Gledao si prepričavanje filma.,di,,,31,,,
,Sequence,flow.Sequence,2_20,,,,,,completion,6405.399999904621,292989.40000009537,292993.7,293018.7,299424.09999990463,299637.09999990463,2024-07-30T21:58:40.744Z,299669.4,6q8-cdK9ew,incremental,anketa,6645cf40bc81b65c5faccf1d,participant,hcpib7dulz8yg417,,,,,Čega si gledao prepričavanje?,Gledao si prepričavanje filma.,di,,,31,,,
,context,canvas.Screen,2_21_0_0,,,,,,response,1855.0999999999767,299637.59999990463,299644.4,299669.4,301524.5,301722.7999999523,2024-07-30T21:58:42.830Z,301753.2,6q8-cdK9ew,incremental,anketa,6645cf40bc81b65c5faccf1d,participant,hcpib7dulz8yg417,,,click,,"Što je kupio tata, i spremila je majka?","Tata je kupio meso, a majka je spremila salatu.",csi,,,7,,,
,Timer frame,html.Frame,2_21_0,,,,,,,2053.6999999046093,299637.2999999523,299644.4,299669.4,301723.09999990463,301723.40000009537,2024-07-30T21:58:42.831Z,301753.2,6q8-cdK9ew,incremental,anketa,6645cf40bc81b65c5faccf1d,participant,hcpib7dulz8yg417,,,,,"Što je kupio tata, i spremila je majka?","Tata je kupio meso, a majka je spremila salatu.",csi,,,7,,,
,stimulus,canvas.Screen,2_21_1_0,,,,,,response,2988.500000047672,301724,301728.1,301753.2,304741.7000000477,304975.09999990463,2024-07-30T21:58:46.082Z,305020.3,6q8-cdK9ew,incremental,anketa,6645cf40bc81b65c5faccf1d,participant,hcpib7dulz8yg417,,5,click @5,,"Što je kupio tata, i spremila je majka?","Tata je kupio meso, a majka je spremila salatu.",csi,,,7,,,
,Timer frame,html.Frame,2_21_1,,,,,,,3222.0999999523046,301723.7000000477,301728.1,301753.2,304975.2999999523,304975.40000009537,2024-07-30T21:58:46.083Z,305020.3,6q8-cdK9ew,incremental,anketa,6645cf40bc81b65c5faccf1d,participant,hcpib7dulz8yg417,,,,,"Što je kupio tata, i spremila je majka?","Tata je kupio meso, a majka je spremila salatu.",csi,,,7,,,
,Spremanje,canvas.Screen,2_21_2,,,,,,skipped,,304975.7000000477,,,304975.2999999523,304975.90000009537,2024-07-30T21:58:46.083Z,305020.3,6q8-cdK9ew,incremental,anketa,6645cf40bc81b65c5faccf1d,participant,hcpib7dulz8yg417,,,,,"Što je kupio tata, i spremila je majka?","Tata je kupio meso, a majka je spremila salatu.",csi,,,7,,,
,Question form,html.Form,2_21_3,,,,,,skipped,,304976.09999990463,,,304975.2999999523,304976.2000000477,2024-07-30T21:58:46.083Z,305020.3,6q8-cdK9ew,incremental,anketa,6645cf40bc81b65c5faccf1d,participant,hcpib7dulz8yg417,,,,,"Što je kupio tata, i spremila je majka?","Tata je kupio meso, a majka je spremila salatu.",csi,,,7,,,
,Answer indication,canvas.Screen,2_21_4,,,,,,skipped,,304977.59999990463,,,304975.2999999523,304977.7000000477,2024-07-30T21:58:46.085Z,305020.3,6q8-cdK9ew,incremental,anketa,6645cf40bc81b65c5faccf1d,participant,hcpib7dulz8yg417,,,,,"Što je kupio tata, i spremila je majka?","Tata je kupio meso, a majka je spremila salatu.",csi,,,7,,,
,inter-stimulus,canvas.Screen,2_21_5,,,,,,response,972.2000000000116,304977.90000009537,304970.2,305020.3,305992.5,306208.7000000477,2024-07-30T21:58:47.316Z,306236.8,6q8-cdK9ew,incremental,anketa,6645cf40bc81b65c5faccf1d,participant,hcpib7dulz8yg417,,,mousedown,,"Što je kupio tata, i spremila je majka?","Tata je kupio meso, a majka je spremila salatu.",csi,,,7,,,
,Sequence,flow.Sequence,2_21,,,,,,completion,6323.099999999977,299637.2999999523,299644.4,299669.4,305992.5,306209.2999999523,2024-07-30T21:58:47.316Z,306236.8,6q8-cdK9ew,incremental,anketa,6645cf40bc81b65c5faccf1d,participant,hcpib7dulz8yg417,,,,,"Što je kupio tata, i spremila je majka?","Tata je kupio meso, a majka je spremila salatu.",csi,,,7,,,
,context,canvas.Screen,2_22_0_0,,,,,,response,2846.799999904644,306209.7999999523,306211.8,306236.8,309083.59999990463,309325.2999999523,2024-07-30T21:58:50.433Z,309370,6q8-cdK9ew,incremental,anketa,6645cf40bc81b65c5faccf1d,participant,hcpib7dulz8yg417,,,click,,Čega je vidio muzej i obalu?,On je vidio muzej i obalu rijeke.,csi,0,0,1,,,2305
,Timer frame,html.Frame,2_22_0,,,,,,,3088.7000000000116,306209.5,306211.8,306236.8,309325.5,309325.59999990463,2024-07-30T21:58:50.433Z,309370,6q8-cdK9ew,incremental,anketa,6645cf40bc81b65c5faccf1d,participant,hcpib7dulz8yg417,,,,,Čega je vidio muzej i obalu?,On je vidio muzej i obalu rijeke.,csi,0,0,1,,,2305
,stimulus,canvas.Screen,2_22_1_0,,,,,,response,1672.0999999046326,309326.09999990463,309328.4,309370,311042.09999990463,311255.2000000477,2024-07-30T21:58:52.363Z,311287.1,6q8-cdK9ew,incremental,anketa,6645cf40bc81b65c5faccf1d,participant,hcpib7dulz8yg417,,1,click @1,,Čega je vidio muzej i obalu?,On je vidio muzej i obalu rijeke.,csi,0,0,1,,,2305
,Timer frame,html.Frame,2_22_1,,,,,,,1885.7000000476837,309325.7999999523,309328.4,309370,311255.7000000477,311256,2024-07-30T21:58:52.363Z,311287.1,6q8-cdK9ew,incremental,anketa,6645cf40bc81b65c5faccf1d,participant,hcpib7dulz8yg417,,,,,Čega je vidio muzej i obalu?,On je vidio muzej i obalu rijeke.,csi,0,0,1,,,2305
,Spremanje,canvas.Screen,2_22_2,,,,,,skipped,,311256.2999999523,,,311255.7000000477,311256.40000009537,2024-07-30T21:58:52.364Z,311287.1,6q8-cdK9ew,incremental,anketa,6645cf40bc81b65c5faccf1d,participant,hcpib7dulz8yg417,,,,,Čega je vidio muzej i obalu?,On je vidio muzej i obalu rijeke.,csi,0,0,1,,,2305
,Question form,html.Form,2_22_3,,,,,,skipped,,311256.59999990463,,,311255.7000000477,311256.7999999523,2024-07-30T21:58:52.364Z,311287.1,6q8-cdK9ew,incremental,anketa,6645cf40bc81b65c5faccf1d,participant,hcpib7dulz8yg417,,,,,Čega je vidio muzej i obalu?,On je vidio muzej i obalu rijeke.,csi,0,0,1,,,2305
,Answer indication,canvas.Screen,2_22_4,,,,,,skipped,,311258.7999999523,,,311255.7000000477,311259,2024-07-30T21:58:52.366Z,311287.1,6q8-cdK9ew,incremental,anketa,6645cf40bc81b65c5faccf1d,participant,hcpib7dulz8yg417,,,,,Čega je vidio muzej i obalu?,On je vidio muzej i obalu rijeke.,csi,0,0,1,,,2305
,inter-stimulus,canvas.Screen,2_22_5,,,,,,response,1113.8000000953907,311259.2000000477,311262,311287.1,312400.90000009537,312621.7999999523,2024-07-30T21:58:53.729Z,312679.2,6q8-cdK9ew,incremental,anketa,6645cf40bc81b65c5faccf1d,participant,hcpib7dulz8yg417,,,mousedown,,Čega je vidio muzej i obalu?,On je vidio muzej i obalu rijeke.,csi,0,0,1,,,2305
,Sequence,flow.Sequence,2_22,,,,,,completion,6164.100000095379,306209.5,306211.8,306236.8,312400.90000009537,312622.2999999523,2024-07-30T21:58:53.730Z,312679.2,6q8-cdK9ew,incremental,anketa,6645cf40bc81b65c5faccf1d,participant,hcpib7dulz8yg417,,,,,Čega je vidio muzej i obalu?,On je vidio muzej i obalu rijeke.,csi,0,0,1,,,2305
,context,canvas.Screen,2_23_0_0,,,,,,response,3206.000000047672,312622.7000000477,312629.1,312679.2,315885.2000000477,316094.09999990463,2024-07-30T21:58:57.201Z,316129.7,6q8-cdK9ew,incremental,anketa,6645cf40bc81b65c5faccf1d,participant,hcpib7dulz8yg417,,,click,,"Što žele da Ivan pripremi, a Nikola da posprema kuću??","Žele da Ivan pripremi juhu, a Nikola da posprema kuću..",csi,26,27,3,,,
,Timer frame,html.Frame,2_23_0,,,,,,,3415.2999999999884,312622.40000009537,312629.1,312679.2,316094.5,316094.59999990463,2024-07-30T21:58:57.202Z,316129.7,6q8-cdK9ew,incremental,anketa,6645cf40bc81b65c5faccf1d,participant,hcpib7dulz8yg417,,,,,"Što žele da Ivan pripremi, a Nikola da posprema kuću??","Žele da Ivan pripremi juhu, a Nikola da posprema kuću..",csi,26,27,3,,,
,stimulus,canvas.Screen,2_23_1_0,,,,,,response,2814.2999999999884,316095.09999990463,316096.3,316129.7,318944,319159.40000009537,2024-07-30T21:59:00.267Z,319196.7,6q8-cdK9ew,incremental,anketa,6645cf40bc81b65c5faccf1d,participant,hcpib7dulz8yg417,,3,click @3,,"Što žele da Ivan pripremi, a Nikola da posprema kuću??","Žele da Ivan pripremi juhu, a Nikola da posprema kuću..",csi,26,27,3,,,
,Timer frame,html.Frame,2_23_1,,,,,,,3030.000000047672,316094.90000009537,316096.3,316129.7,319159.7000000477,319159.7999999523,2024-07-30T21:59:00.267Z,319196.7,6q8-cdK9ew,incremental,anketa,6645cf40bc81b65c5faccf1d,participant,hcpib7dulz8yg417,,,,,"Što žele da Ivan pripremi, a Nikola da posprema kuću??","Žele da Ivan pripremi juhu, a Nikola da posprema kuću..",csi,26,27,3,,,
,Spremanje,canvas.Screen,2_23_2,,,,,,skipped,,319160,,,319159.7000000477,319160.09999990463,2024-07-30T21:59:00.267Z,319196.7,6q8-cdK9ew,incremental,anketa,6645cf40bc81b65c5faccf1d,participant,hcpib7dulz8yg417,,,,,"Što žele da Ivan pripremi, a Nikola da posprema kuću??","Žele da Ivan pripremi juhu, a Nikola da posprema kuću..",csi,26,27,3,,,
,Question form,html.Form,2_23_3,,,,,,skipped,,319160.2000000477,,,319159.7000000477,319160.5,2024-07-30T21:59:00.268Z,319196.7,6q8-cdK9ew,incremental,anketa,6645cf40bc81b65c5faccf1d,participant,hcpib7dulz8yg417,,,,,"Što žele da Ivan pripremi, a Nikola da posprema kuću??","Žele da Ivan pripremi juhu, a Nikola da posprema kuću..",csi,26,27,3,,,
,Answer indication,canvas.Screen,2_23_4,,,,,,skipped,,319161.7000000477,,,319159.7000000477,319161.90000009537,2024-07-30T21:59:00.269Z,319196.7,6q8-cdK9ew,incremental,anketa,6645cf40bc81b65c5faccf1d,participant,hcpib7dulz8yg417,,,,,"Što žele da Ivan pripremi, a Nikola da posprema kuću??","Žele da Ivan pripremi juhu, a Nikola da posprema kuću..",csi,26,27,3,,,
,inter-stimulus,canvas.Screen,2_23_5,,,,,,response,939.2999999999884,319162,319163.4,319196.7,320136,320343.90000009537,2024-07-30T21:59:01.451Z,320372.1,6q8-cdK9ew,incremental,anketa,6645cf40bc81b65c5faccf1d,participant,hcpib7dulz8yg417,,,mousedown,,"Što žele da Ivan pripremi, a Nikola da posprema kuću??","Žele da Ivan pripremi juhu, a Nikola da posprema kuću..",csi,26,27,3,,,
,Sequence,flow.Sequence,2_23,,,,,,completion,7456.799999999988,312622.40000009537,312629.1,312679.2,320136,320344.40000009537,2024-07-30T21:59:01.452Z,320372.1,6q8-cdK9ew,incremental,anketa,6645cf40bc81b65c5faccf1d,participant,hcpib7dulz8yg417,,,,,"Što žele da Ivan pripremi, a Nikola da posprema kuću??","Žele da Ivan pripremi juhu, a Nikola da posprema kuću..",csi,26,27,3,,,
,context,canvas.Screen,2_24_0_0,,,,,,response,1972.4000000000233,320344.90000009537,320347.1,320372.1,322344.5,322526.90000009537,2024-07-30T21:59:03.634Z,322572.1,6q8-cdK9ew,incremental,anketa,6645cf40bc81b65c5faccf1d,participant,hcpib7dulz8yg417,,,click,,"Koliko čega Luka je zaboravio, on mi je posudio?","Luka je zaboravio, koliko mi je novca posudio.",ai,,,28,,,
,Timer frame,html.Frame,2_24_0,,,,,,,2155.1999999523396,320344.7000000477,320347.1,320372.1,322527.2999999523,322527.40000009537,2024-07-30T21:59:03.635Z,322572.1,6q8-cdK9ew,incremental,anketa,6645cf40bc81b65c5faccf1d,participant,hcpib7dulz8yg417,,,,,"Koliko čega Luka je zaboravio, on mi je posudio?","Luka je zaboravio, koliko mi je novca posudio.",ai,,,28,,,
,stimulus,canvas.Screen,2_24_1_0,,,,,,response,2799.1999999523396,322528,322530.4,322572.1,325371.2999999523,325595,2024-07-30T21:59:06.702Z,325631.1,6q8-cdK9ew,incremental,anketa,6645cf40bc81b65c5faccf1d,participant,hcpib7dulz8yg417,,1,click @1,,"Koliko čega Luka je zaboravio, on mi je posudio?","Luka je zaboravio, koliko mi je novca posudio.",ai,,,28,,,
,Timer frame,html.Frame,2_24_1,,,,,,,3023.100000047707,322527.7999999523,322530.4,322572.1,325595.2000000477,325595.5,2024-07-30T21:59:06.703Z,325631.1,6q8-cdK9ew,incremental,anketa,6645cf40bc81b65c5faccf1d,participant,hcpib7dulz8yg417,,,,,"Koliko čega Luka je zaboravio, on mi je posudio?","Luka je zaboravio, koliko mi je novca posudio.",ai,,,28,,,
,Spremanje,canvas.Screen,2_24_2,,,,,,skipped,,325595.7999999523,,,325595.2000000477,325595.90000009537,2024-07-30T21:59:06.703Z,325631.1,6q8-cdK9ew,incremental,anketa,6645cf40bc81b65c5faccf1d,participant,hcpib7dulz8yg417,,,,,"Koliko čega Luka je zaboravio, on mi je posudio?","Luka je zaboravio, koliko mi je novca posudio.",ai,,,28,,,
,Question form,html.Form,2_24_3,,,,,,skipped,,325596,,,325595.2000000477,325596.2000000477,2024-07-30T21:59:06.703Z,325631.1,6q8-cdK9ew,incremental,anketa,6645cf40bc81b65c5faccf1d,participant,hcpib7dulz8yg417,,,,,"Koliko čega Luka je zaboravio, on mi je posudio?","Luka je zaboravio, koliko mi je novca posudio.",ai,,,28,,,
,Answer indication,canvas.Screen,2_24_4,,,,,,skipped,,325598.2000000477,,,325595.2000000477,325598.40000009537,2024-07-30T21:59:06.706Z,325631.1,6q8-cdK9ew,incremental,anketa,6645cf40bc81b65c5faccf1d,participant,hcpib7dulz8yg417,,,,,"Koliko čega Luka je zaboravio, on mi je posudio?","Luka je zaboravio, koliko mi je novca posudio.",ai,,,28,,,
,inter-stimulus,canvas.Screen,2_24_5,,,,,,response,589.1999999523396,325598.7000000477,325597.7,325631.1,326220.2999999523,326445.59999990463,2024-07-30T21:59:07.553Z,326481.2,6q8-cdK9ew,incremental,anketa,6645cf40bc81b65c5faccf1d,participant,hcpib7dulz8yg417,,,mousedown,,"Koliko čega Luka je zaboravio, on mi je posudio?","Luka je zaboravio, koliko mi je novca posudio.",ai,,,28,,,
,Sequence,flow.Sequence,2_24,,,,,,completion,5848.19999995234,320344.7000000477,320347.1,320372.1,326220.2999999523,326446,2024-07-30T21:59:07.553Z,326481.2,6q8-cdK9ew,incremental,anketa,6645cf40bc81b65c5faccf1d,participant,hcpib7dulz8yg417,,,,,"Koliko čega Luka je zaboravio, on mi je posudio?","Luka je zaboravio, koliko mi je novca posudio.",ai,,,28,,,
,context,canvas.Screen,2_25_0_0,,,,,,response,1614.5999999523046,326446.59999990463,326447.8,326481.2,328095.7999999523,328294.40000009537,2024-07-30T21:59:09.402Z,328331.3,6q8-cdK9ew,incremental,anketa,6645cf40bc81b65c5faccf1d,participant,hcpib7dulz8yg417,,,click,,Što bismo voljeli da Drago napravi bez prigovora??,Voljeli bismo da Drago opere auto bez prigovora..,si,26,22,16,,,
,Timer frame,html.Frame,2_25_0,,,,,,,1813.500000047672,326446.40000009537,326447.8,326481.2,328294.7000000477,328294.90000009537,2024-07-30T21:59:09.402Z,328331.3,6q8-cdK9ew,incremental,anketa,6645cf40bc81b65c5faccf1d,participant,hcpib7dulz8yg417,,,,,Što bismo voljeli da Drago napravi bez prigovora??,Voljeli bismo da Drago opere auto bez prigovora..,si,26,22,16,,,
,stimulus,canvas.Screen,2_25_1_0,,,,,,response,2031.600000095379,328295.40000009537,328289.6,328331.3,330362.90000009537,330595.90000009537,2024-07-30T21:59:11.703Z,330640,6q8-cdK9ew,incremental,anketa,6645cf40bc81b65c5faccf1d,participant,hcpib7dulz8yg417,,7,click @7,,Što bismo voljeli da Drago napravi bez prigovora??,Voljeli bismo da Drago opere auto bez prigovora..,si,26,22,16,,,
,Timer frame,html.Frame,2_25_1,,,,,,,2264.799999904644,328295.09999990463,328289.6,328331.3,330596.09999990463,330596.2999999523,2024-07-30T21:59:11.703Z,330640,6q8-cdK9ew,incremental,anketa,6645cf40bc81b65c5faccf1d,participant,hcpib7dulz8yg417,,,,,Što bismo voljeli da Drago napravi bez prigovora??,Voljeli bismo da Drago opere auto bez prigovora..,si,26,22,16,,,
,Spremanje,canvas.Screen,2_25_2,,,,,,skipped,,330596.40000009537,,,330596.09999990463,330596.59999990463,2024-07-30T21:59:11.704Z,330640,6q8-cdK9ew,incremental,anketa,6645cf40bc81b65c5faccf1d,participant,hcpib7dulz8yg417,,,,,Što bismo voljeli da Drago napravi bez prigovora??,Voljeli bismo da Drago opere auto bez prigovora..,si,26,22,16,,,
,Question form,html.Form,2_25_3,,,,,,skipped,,330596.59999990463,,,330596.09999990463,330596.7999999523,2024-07-30T21:59:11.704Z,330640,6q8-cdK9ew,incremental,anketa,6645cf40bc81b65c5faccf1d,participant,hcpib7dulz8yg417,,,,,Što bismo voljeli da Drago napravi bez prigovora??,Voljeli bismo da Drago opere auto bez prigovora..,si,26,22,16,,,
,Answer indication,canvas.Screen,2_25_4,,,,,,skipped,,330598.2999999523,,,330596.09999990463,330598.40000009537,2024-07-30T21:59:11.706Z,330640,6q8-cdK9ew,incremental,anketa,6645cf40bc81b65c5faccf1d,participant,hcpib7dulz8yg417,,,,,Što bismo voljeli da Drago napravi bez prigovora??,Voljeli bismo da Drago opere auto bez prigovora..,si,26,22,16,,,
,inter-stimulus,canvas.Screen,2_25_5,,,,,,response,614.7999999523163,330598.59999990463,330598.4,330640,331254.7999999523,331458.7000000477,2024-07-30T21:59:12.566Z,331507,6q8-cdK9ew,incremental,anketa,6645cf40bc81b65c5faccf1d,participant,hcpib7dulz8yg417,,,mousedown,,Što bismo voljeli da Drago napravi bez prigovora??,Voljeli bismo da Drago opere auto bez prigovora..,si,26,22,16,,,
,Sequence,flow.Sequence,2_25,,,,,,completion,4773.599999952305,326446.2999999523,326447.8,326481.2,331254.7999999523,331459.2999999523,2024-07-30T21:59:12.567Z,331507,6q8-cdK9ew,incremental,anketa,6645cf40bc81b65c5faccf1d,participant,hcpib7dulz8yg417,,,,,Što bismo voljeli da Drago napravi bez prigovora??,Voljeli bismo da Drago opere auto bez prigovora..,si,26,22,16,,,
,context,canvas.Screen,2_26_0_0,,,,,,response,1356.2999999523163,331459.90000009537,331465,331507,332863.2999999523,333096.2999999523,2024-07-30T21:59:14.204Z,333140.6,6q8-cdK9ew,incremental,anketa,6645cf40bc81b65c5faccf1d,participant,hcpib7dulz8yg417,,,click,,Za kim su banditi imali pitanja?,Ti banditi su imali pitanja za mene.,nf,,,40,,,
,Timer frame,html.Frame,2_26_0,,,,,,,1589.5999999046326,331459.59999990463,331465,331507,333096.59999990463,333096.7999999523,2024-07-30T21:59:14.204Z,333140.6,6q8-cdK9ew,incremental,anketa,6645cf40bc81b65c5faccf1d,participant,hcpib7dulz8yg417,,,,,Za kim su banditi imali pitanja?,Ti banditi su imali pitanja za mene.,nf,,,40,,,
,stimulus,canvas.Screen,2_26_1_0,,,,,,response,2664.6999999523396,333097.2999999523,333098.9,333140.6,335805.2999999523,336048.90000009537,2024-07-30T21:59:17.156Z,336082.4,6q8-cdK9ew,incremental,anketa,6645cf40bc81b65c5faccf1d,participant,hcpib7dulz8yg417,,3,click @3,,Za kim su banditi imali pitanja?,Ti banditi su imali pitanja za mene.,nf,,,40,,,
,Timer frame,html.Frame,2_26_1,,,,,,,2908.8000000953907,333097,333098.9,333140.6,336049.40000009537,336049.7000000477,2024-07-30T21:59:17.157Z,336082.4,6q8-cdK9ew,incremental,anketa,6645cf40bc81b65c5faccf1d,participant,hcpib7dulz8yg417,,,,,Za kim su banditi imali pitanja?,Ti banditi su imali pitanja za mene.,nf,,,40,,,
,Spremanje,canvas.Screen,2_26_2,,,,,,skipped,,336049.90000009537,,,336049.40000009537,336050.09999990463,2024-07-30T21:59:17.157Z,336082.4,6q8-cdK9ew,incremental,anketa,6645cf40bc81b65c5faccf1d,participant,hcpib7dulz8yg417,,,,,Za kim su banditi imali pitanja?,Ti banditi su imali pitanja za mene.,nf,,,40,,,
,Question form,html.Form,2_26_3,,,,,,skipped,,336050.2000000477,,,336049.40000009537,336050.40000009537,2024-07-30T21:59:17.158Z,336082.4,6q8-cdK9ew,incremental,anketa,6645cf40bc81b65c5faccf1d,participant,hcpib7dulz8yg417,,,,,Za kim su banditi imali pitanja?,Ti banditi su imali pitanja za mene.,nf,,,40,,,
,Answer indication,canvas.Screen,2_26_4,,,,,,skipped,,336053.09999990463,,,336049.40000009537,336053.40000009537,2024-07-30T21:59:17.161Z,336082.4,6q8-cdK9ew,incremental,anketa,6645cf40bc81b65c5faccf1d,participant,hcpib7dulz8yg417,,,,,Za kim su banditi imali pitanja?,Ti banditi su imali pitanja za mene.,nf,,,40,,,
,inter-stimulus,canvas.Screen,2_26_5,,,,,,response,572.899999952293,336053.59999990463,336040.7,336082.4,336655.2999999523,336861.90000009537,2024-07-30T21:59:17.969Z,336890.8,6q8-cdK9ew,incremental,anketa,6645cf40bc81b65c5faccf1d,participant,hcpib7dulz8yg417,,,mousedown,,Za kim su banditi imali pitanja?,Ti banditi su imali pitanja za mene.,nf,,,40,,,
,Sequence,flow.Sequence,2_26,,,,,,completion,5148.299999952316,331459.40000009537,331465,331507,336655.2999999523,336862.40000009537,2024-07-30T21:59:17.970Z,336890.8,6q8-cdK9ew,incremental,anketa,6645cf40bc81b65c5faccf1d,participant,hcpib7dulz8yg417,,,,,Za kim su banditi imali pitanja?,Ti banditi su imali pitanja za mene.,nf,,,40,,,
,context,canvas.Screen,2_27_0_0,,,,,,response,2348.499999952328,336863,336865.7,336890.8,339239.2999999523,339431.7999999523,2024-07-30T21:59:20.539Z,339466.1,6q8-cdK9ew,incremental,anketa,6645cf40bc81b65c5faccf1d,participant,hcpib7dulz8yg417,,,click,,Petar i Mara su jučer otišli u kino pogledati dobru komediju..,Jučer su Petar i Mara otišli u kino pogledati dobru komediju..,gf,35,35,46,,,
,Timer frame,html.Frame,2_27_0,,,,,,,2541.299999904644,336862.59999990463,336865.7,336890.8,339432.09999990463,339432.2999999523,2024-07-30T21:59:20.540Z,339466.1,6q8-cdK9ew,incremental,anketa,6645cf40bc81b65c5faccf1d,participant,hcpib7dulz8yg417,,,,,Petar i Mara su jučer otišli u kino pogledati dobru komediju..,Jučer su Petar i Mara otišli u kino pogledati dobru komediju..,gf,35,35,46,,,
,stimulus,canvas.Screen,2_27_1_0,,,,,,response,2790.499999904656,339432.90000009537,339432.7,339466.1,342256.59999990463,342482.40000009537,2024-07-30T21:59:23.590Z,342533.4,6q8-cdK9ew,incremental,anketa,6645cf40bc81b65c5faccf1d,participant,hcpib7dulz8yg417,,7,click @7,,Petar i Mara su jučer otišli u kino pogledati dobru komediju..,Jučer su Petar i Mara otišli u kino pogledati dobru komediju..,gf,35,35,46,,,
,Timer frame,html.Frame,2_27_1,,,,,,,3016.499999904656,339432.5,339432.7,339466.1,342482.59999990463,342482.7999999523,2024-07-30T21:59:23.590Z,342533.4,6q8-cdK9ew,incremental,anketa,6645cf40bc81b65c5faccf1d,participant,hcpib7dulz8yg417,,,,,Petar i Mara su jučer otišli u kino pogledati dobru komediju..,Jučer su Petar i Mara otišli u kino pogledati dobru komediju..,gf,35,35,46,,,
,Spremanje,canvas.Screen,2_27_2,,,,,,skipped,,342483,,,342482.59999990463,342483.09999990463,2024-07-30T21:59:23.590Z,342533.4,6q8-cdK9ew,incremental,anketa,6645cf40bc81b65c5faccf1d,participant,hcpib7dulz8yg417,,,,,Petar i Mara su jučer otišli u kino pogledati dobru komediju..,Jučer su Petar i Mara otišli u kino pogledati dobru komediju..,gf,35,35,46,,,
,Question form,html.Form,2_27_3,,,,,,skipped,,342483.2999999523,,,342482.59999990463,342483.5,2024-07-30T21:59:23.591Z,342533.4,6q8-cdK9ew,incremental,anketa,6645cf40bc81b65c5faccf1d,participant,hcpib7dulz8yg417,,,,,Petar i Mara su jučer otišli u kino pogledati dobru komediju..,Jučer su Petar i Mara otišli u kino pogledati dobru komediju..,gf,35,35,46,,,
,Answer indication,canvas.Screen,2_27_4,,,,,,skipped,,342485.2000000477,,,342482.59999990463,342485.40000009537,2024-07-30T21:59:23.593Z,342533.4,6q8-cdK9ew,incremental,anketa,6645cf40bc81b65c5faccf1d,participant,hcpib7dulz8yg417,,,,,Petar i Mara su jučer otišli u kino pogledati dobru komediju..,Jučer su Petar i Mara otišli u kino pogledati dobru komediju..,gf,35,35,46,,,
,inter-stimulus,canvas.Screen,2_27_5,,,,,,response,1031.8000000476604,342485.5,342475.1,342533.4,343565.2000000477,343798.09999990463,2024-07-30T21:59:24.905Z,343850.3,6q8-cdK9ew,incremental,anketa,6645cf40bc81b65c5faccf1d,participant,hcpib7dulz8yg417,,,mousedown,,Petar i Mara su jučer otišli u kino pogledati dobru komediju..,Jučer su Petar i Mara otišli u kino pogledati dobru komediju..,gf,35,35,46,,,
,Sequence,flow.Sequence,2_27,,,,,,completion,6674.400000047695,336862.59999990463,336865.7,336890.8,343565.2000000477,343798.7000000477,2024-07-30T21:59:24.906Z,343850.3,6q8-cdK9ew,incremental,anketa,6645cf40bc81b65c5faccf1d,participant,hcpib7dulz8yg417,,,,,Petar i Mara su jučer otišli u kino pogledati dobru komediju..,Jučer su Petar i Mara otišli u kino pogledati dobru komediju..,gf,35,35,46,,,
,context,canvas.Screen,2_28_0_0,,,,,,response,1523.499999952328,343799.2000000477,343800.2,343850.3,345373.7999999523,345615.09999990463,2024-07-30T21:59:26.722Z,345659,6q8-cdK9ew,incremental,anketa,6645cf40bc81b65c5faccf1d,participant,hcpib7dulz8yg417,,,click,,"Što je on plakao, čitajući?","On je plakao, čitajući knjigu.",ai,,,22,,,
,Timer frame,html.Frame,2_28_0,,,,,,,1765.100000095379,343798.90000009537,343800.2,343850.3,345615.40000009537,345615.7000000477,2024-07-30T21:59:26.723Z,345659,6q8-cdK9ew,incremental,anketa,6645cf40bc81b65c5faccf1d,participant,hcpib7dulz8yg417,,,,,"Što je on plakao, čitajući?","On je plakao, čitajući knjigu.",ai,,,22,,,
,stimulus,canvas.Screen,2_28_1_0,,,,,,response,3515.5999999046326,345616.2000000477,345617.3,345659,349174.59999990463,349382,2024-07-30T21:59:30.489Z,349417.6,6q8-cdK9ew,incremental,anketa,6645cf40bc81b65c5faccf1d,participant,hcpib7dulz8yg417,,2,click @2,,"Što je on plakao, čitajući?","On je plakao, čitajući knjigu.",ai,,,22,,,
,Timer frame,html.Frame,2_28_1,,,,,,,3723.2999999523163,345616,345617.3,345659,349382.2999999523,349382.7000000477,2024-07-30T21:59:30.490Z,349417.6,6q8-cdK9ew,incremental,anketa,6645cf40bc81b65c5faccf1d,participant,hcpib7dulz8yg417,,,,,"Što je on plakao, čitajući?","On je plakao, čitajući knjigu.",ai,,,22,,,
,Spremanje,canvas.Screen,2_28_2,,,,,,skipped,,349382.90000009537,,,349382.2999999523,349383.09999990463,2024-07-30T21:59:30.490Z,349417.6,6q8-cdK9ew,incremental,anketa,6645cf40bc81b65c5faccf1d,participant,hcpib7dulz8yg417,,,,,"Što je on plakao, čitajući?","On je plakao, čitajući knjigu.",ai,,,22,,,
,Question form,html.Form,2_28_3,,,,,,skipped,,349383.2999999523,,,349382.2999999523,349383.5,2024-07-30T21:59:30.491Z,349417.6,6q8-cdK9ew,incremental,anketa,6645cf40bc81b65c5faccf1d,participant,hcpib7dulz8yg417,,,,,"Što je on plakao, čitajući?","On je plakao, čitajući knjigu.",ai,,,22,,,
,Answer indication,canvas.Screen,2_28_4,,,,,,skipped,,349385.7000000477,,,349382.2999999523,349385.90000009537,2024-07-30T21:59:30.493Z,349417.6,6q8-cdK9ew,incremental,anketa,6645cf40bc81b65c5faccf1d,participant,hcpib7dulz8yg417,,,,,"Što je on plakao, čitajući?","On je plakao, čitajući knjigu.",ai,,,22,,,
,inter-stimulus,canvas.Screen,2_28_5,,,,,,response,648.6999999523396,349386.09999990463,349384.3,349417.6,350066.2999999523,350257.40000009537,2024-07-30T21:59:31.365Z,350292.4,6q8-cdK9ew,incremental,anketa,6645cf40bc81b65c5faccf1d,participant,hcpib7dulz8yg417,,,mousedown,,"Što je on plakao, čitajući?","On je plakao, čitajući knjigu.",ai,,,22,,,
,Sequence,flow.Sequence,2_28,,,,,,completion,6215.999999952328,343798.90000009537,343800.2,343850.3,350066.2999999523,350257.7000000477,2024-07-30T21:59:31.365Z,350292.4,6q8-cdK9ew,incremental,anketa,6645cf40bc81b65c5faccf1d,participant,hcpib7dulz8yg417,,,,,"Što je on plakao, čitajući?","On je plakao, čitajući knjigu.",ai,,,22,,,
,context,canvas.Screen,2_29_0_0,,,,,,response,2257.500000095344,350258.2000000477,350259.1,350292.4,352549.90000009537,352766,2024-07-30T21:59:33.873Z,352801.3,6q8-cdK9ew,incremental,anketa,6645cf40bc81b65c5faccf1d,participant,hcpib7dulz8yg417,,,click,,Koliko vidim dječaka kojem je ljubazni poštar poklonio bicikla??,Vidim dječaka kojem je ljubazni poštar poklonio dva bicikla..,cnp,38,38,10,,,2305
,Timer frame,html.Frame,2_29_0,,,,,,,2474.0999999999767,350257.90000009537,350259.1,350292.4,352766.5,352766.7000000477,2024-07-30T21:59:33.874Z,352801.3,6q8-cdK9ew,incremental,anketa,6645cf40bc81b65c5faccf1d,participant,hcpib7dulz8yg417,,,,,Koliko vidim dječaka kojem je ljubazni poštar poklonio bicikla??,Vidim dječaka kojem je ljubazni poštar poklonio dva bicikla..,cnp,38,38,10,,,2305
,stimulus,canvas.Screen,2_29_1_0,,,,,,response,2099.4000000476954,352767.09999990463,352768,352801.3,354900.7000000477,355125.09999990463,2024-07-30T21:59:36.232Z,355176.7,6q8-cdK9ew,incremental,anketa,6645cf40bc81b65c5faccf1d,participant,hcpib7dulz8yg417,,1,click @1,,Koliko vidim dječaka kojem je ljubazni poštar poklonio bicikla??,Vidim dječaka kojem je ljubazni poštar poklonio dva bicikla..,cnp,38,38,10,,,2305
,Timer frame,html.Frame,2_29_1,,,,,,,2323.999999952328,352766.90000009537,352768,352801.3,355125.2999999523,355125.5,2024-07-30T21:59:36.233Z,355176.7,6q8-cdK9ew,incremental,anketa,6645cf40bc81b65c5faccf1d,participant,hcpib7dulz8yg417,,,,,Koliko vidim dječaka kojem je ljubazni poštar poklonio bicikla??,Vidim dječaka kojem je ljubazni poštar poklonio dva bicikla..,cnp,38,38,10,,,2305
,Spremanje,canvas.Screen,2_29_2,,,,,,skipped,,355125.59999990463,,,355125.2999999523,355125.7999999523,2024-07-30T21:59:36.233Z,355176.7,6q8-cdK9ew,incremental,anketa,6645cf40bc81b65c5faccf1d,participant,hcpib7dulz8yg417,,,,,Koliko vidim dječaka kojem je ljubazni poštar poklonio bicikla??,Vidim dječaka kojem je ljubazni poštar poklonio dva bicikla..,cnp,38,38,10,,,2305
,Question form,html.Form,2_29_3,,,,,,skipped,,355125.90000009537,,,355125.2999999523,355126.09999990463,2024-07-30T21:59:36.233Z,355176.7,6q8-cdK9ew,incremental,anketa,6645cf40bc81b65c5faccf1d,participant,hcpib7dulz8yg417,,,,,Koliko vidim dječaka kojem je ljubazni poštar poklonio bicikla??,Vidim dječaka kojem je ljubazni poštar poklonio dva bicikla..,cnp,38,38,10,,,2305
