meta,sender,sender_type,sender_id,age,education,croatian-knowledge,occupation,,ended_on,duration,time_run,time_render,time_show,time_end,time_commit,timestamp,time_switch,openLabId,type,task,project,status,code,confirmationCode,response,response_action,answer_true,stimulus,context,island_type,transfer_s,transfer_c,id,right_answer,question,change_date
"{""labjs_version"":""20.2.4"",""labjs_build"":{""flavor"":""production"",""commit"":""f5b4a49f956347addd546a832a3327688c2c0fef""},""location"":""https://open-lab.online/test/anketa/66a9ce96e3bab725623a4359"",""userAgent"":""Mozilla/5.0 (Linux; Android 10; K) AppleWebKit/537.36 (KHTML, like Gecko) Chrome/126.0.0.0 Mobile Safari/537.36"",""platform"":""Linux armv81"",""language"":""en-US"",""locale"":""hr"",""timeZone"":""Europe/Zagreb"",""timezoneOffset"":-120,""screen_width"":407,""screen_height"":904,""scroll_width"":980,""scroll_height"":1931,""window_innerWidth"":980,""window_innerHeight"":1844,""devicePixelRatio"":3}",Demography form,html.Form,0,34,master,mother-tongue,Psiholog,,form submission,20008.30000001192,1127.9000000059605,1126.1,1134.5,21142.80000001192,21143.30000001192,2024-07-31T05:42:02.457Z,21254.5,_Ss5NYbESu,incremental,anketa,6645cf40bc81b65c5faccf1d,participant,hcpib7dulz9f5vdd,189368,,,,,,,,,,,,
,context,canvas.Screen,1_0,,,,,,response,19164.5,21143.5,21213.948,21254.5,40419,40653.70000001788,2024-07-31T05:42:21.968Z,40701.2,_Ss5NYbESu,incremental,anketa,6645cf40bc81b65c5faccf1d,participant,hcpib7dulz9f5vdd,,,click,,,,,,,,,,
,stimulus,canvas.Screen,1_1,,,,,,response,26352.800000000003,40653.90000000596,40680.132,40701.2,67054,67326.90000000596,2024-07-31T05:42:48.641Z,67470.7,_Ss5NYbESu,incremental,anketa,6645cf40bc81b65c5faccf1d,participant,hcpib7dulz9f5vdd,,4,click @4,,,,,,,,,,
,inter-stimulus,canvas.Screen,1_2,,,,,,response,492.8000000000029,67327.60000002384,67457.446,67470.7,67963.5,68177,2024-07-31T05:42:49.491Z,68276.2,_Ss5NYbESu,incremental,anketa,6645cf40bc81b65c5faccf1d,participant,hcpib7dulz9f5vdd,,,mousedown,,,,,,,,,,
,context,canvas.Screen,1_3,,,,,,response,6173.400000023845,68178.5,68270.668,68276.2,74449.60000002384,74672.60000002384,2024-07-31T05:42:55.987Z,74796.7,_Ss5NYbESu,incremental,anketa,6645cf40bc81b65c5faccf1d,participant,hcpib7dulz9f5vdd,,,click,,,,,,,,,,
,stimulus,canvas.Screen,1_4,,,,,,response,8471.200000005963,74674.10000002384,74775.94,74796.7,83267.90000000596,83498.80000001192,2024-07-31T05:43:04.813Z,83601.7,_Ss5NYbESu,incremental,anketa,6645cf40bc81b65c5faccf1d,participant,hcpib7dulz9f5vdd,,1,click @1,,,,,,,,,,
,inter-stimulus,canvas.Screen,1_5,,,,,,response,10485.600000011924,83499.60000002384,83596.348,83601.7,94087.30000001192,94302.10000002384,2024-07-31T05:43:15.616Z,94368.7,_Ss5NYbESu,incremental,anketa,6645cf40bc81b65c5faccf1d,participant,hcpib7dulz9f5vdd,,,mousedown,,,,,,,,,,
,context,canvas.Screen,1_6,,,,,,response,8911.300000000003,94302.40000000596,94354.128,94368.7,103280,103527.60000002384,2024-07-31T05:43:24.842Z,103630.5,_Ss5NYbESu,incremental,anketa,6645cf40bc81b65c5faccf1d,participant,hcpib7dulz9f5vdd,,,click,,,,,,,,,,
,stimulus,canvas.Screen,1_7_0,,,,,,response,6120.4000000059605,103540.20000001788,103618.33,103630.5,109750.90000000596,110018.90000000596,2024-07-31T05:43:31.333Z,110107.2,_Ss5NYbESu,incremental,anketa,6645cf40bc81b65c5faccf1d,participant,hcpib7dulz9f5vdd,,4,click @4,,,,,,,,,,
,Timer frame,html.Frame,1_7,,,,,,,6389,103528.70000001788,103618.33,103630.5,110019.5,110022.10000002384,2024-07-31T05:43:31.336Z,110107.2,_Ss5NYbESu,incremental,anketa,6645cf40bc81b65c5faccf1d,participant,hcpib7dulz9f5vdd,,,,,,,,,,,,,
,Screen,canvas.Screen,1_8,,,,,,response,6070.300000000003,110022.60000002384,110082.986,110107.2,116177.5,116429.10000002384,2024-07-31T05:43:37.744Z,116450.9,_Ss5NYbESu,incremental,anketa,6645cf40bc81b65c5faccf1d,participant,hcpib7dulz9f5vdd,,,mousedown,,,,,,,,,,
,Question form,html.Form,1_9,,,,,,form submission,7514.800000017887,116430.80000001192,116440.28,116450.9,123965.70000001788,123967.5,2024-07-31T05:43:45.282Z,124033.3,_Ss5NYbESu,incremental,anketa,6645cf40bc81b65c5faccf1d,participant,hcpib7dulz9f5vdd,,,,Socne,,,,,,,,,
,Screen,canvas.Screen,1_10,,,,,,response,3094.9000000178785,123975.10000002384,124025.884,124033.3,127128.20000001788,127373.80000001192,2024-07-31T05:43:48.688Z,127433.7,_Ss5NYbESu,incremental,anketa,6645cf40bc81b65c5faccf1d,participant,hcpib7dulz9f5vdd,,,mousedown,,,,,,,,,,
,inter-stimulus,canvas.Screen,1_11,,,,,,response,4265.100000011924,127374,127417.722,127433.7,131698.80000001192,131953,2024-07-31T05:43:53.267Z,132048.1,_Ss5NYbESu,incremental,anketa,6645cf40bc81b65c5faccf1d,participant,hcpib7dulz9f5vdd,,,mousedown,,,,,,,,,,
,First stimuli,flow.Sequence,1,,,,,,completion,110444.30000001192,21143.40000000596,21213.948,21254.5,131698.80000001192,131964.60000002384,2024-07-31T05:43:53.279Z,132048.1,_Ss5NYbESu,incremental,anketa,6645cf40bc81b65c5faccf1d,participant,hcpib7dulz9f5vdd,,,,,,,,,,,,,
,context,canvas.Screen,2_0_0_0,,,,,,response,7760.899999999994,131968.10000002384,132033.516,132048.1,139809,140067.90000000596,2024-07-31T05:44:01.382Z,140195.9,_Ss5NYbESu,incremental,anketa,6645cf40bc81b65c5faccf1d,participant,hcpib7dulz9f5vdd,,,click,,Kakve izgrađene u viktorijansko doba te zgrade su izgrađene??,Te su zgrade izgrađene u viktorijansko doba.,nf,36,,43,,,
,Timer frame,html.Frame,2_0_0,,,,,,,8021.000000023836,131967.20000001788,132033.516,132048.1,140069.10000002384,140074.40000000596,2024-07-31T05:44:01.389Z,140195.9,_Ss5NYbESu,incremental,anketa,6645cf40bc81b65c5faccf1d,participant,hcpib7dulz9f5vdd,,,,,Kakve izgrađene u viktorijansko doba te zgrade su izgrađene??,Te su zgrade izgrađene u viktorijansko doba.,nf,36,,43,,,
,stimulus,canvas.Screen,2_0_1_0,,,,,,response,3330.600000000006,140076.40000000596,140171.654,140195.9,143526.5,143769.90000000596,2024-07-31T05:44:05.084Z,143870.7,_Ss5NYbESu,incremental,anketa,6645cf40bc81b65c5faccf1d,participant,hcpib7dulz9f5vdd,,5,click @5,,Kakve izgrađene u viktorijansko doba te zgrade su izgrađene??,Te su zgrade izgrađene u viktorijansko doba.,nf,36,,43,,,
,Timer frame,html.Frame,2_0_1,,,,,,,3575.0000000059663,140075.5,140171.654,140195.9,143770.90000000596,143772.40000000596,2024-07-31T05:44:05.087Z,143870.7,_Ss5NYbESu,incremental,anketa,6645cf40bc81b65c5faccf1d,participant,hcpib7dulz9f5vdd,,,,,Kakve izgrađene u viktorijansko doba te zgrade su izgrađene??,Te su zgrade izgrađene u viktorijansko doba.,nf,36,,43,,,
,Spremanje,canvas.Screen,2_0_2,,,,,,skipped,,143773.90000000596,,,143770.90000000596,143775,2024-07-31T05:44:05.089Z,143870.7,_Ss5NYbESu,incremental,anketa,6645cf40bc81b65c5faccf1d,participant,hcpib7dulz9f5vdd,,,,,Kakve izgrađene u viktorijansko doba te zgrade su izgrađene??,Te su zgrade izgrađene u viktorijansko doba.,nf,36,,43,,,
,Question form,html.Form,2_0_3,,,,,,skipped,,143775.90000000596,,,143770.90000000596,143777.80000001192,2024-07-31T05:44:05.092Z,143870.7,_Ss5NYbESu,incremental,anketa,6645cf40bc81b65c5faccf1d,participant,hcpib7dulz9f5vdd,,,,,Kakve izgrađene u viktorijansko doba te zgrade su izgrađene??,Te su zgrade izgrađene u viktorijansko doba.,nf,36,,43,,,
,Answer indication,canvas.Screen,2_0_4,,,,,,skipped,,143792.10000002384,,,143770.90000000596,143793.20000001788,2024-07-31T05:44:05.107Z,143870.7,_Ss5NYbESu,incremental,anketa,6645cf40bc81b65c5faccf1d,participant,hcpib7dulz9f5vdd,,,,,Kakve izgrađene u viktorijansko doba te zgrade su izgrađene??,Te su zgrade izgrađene u viktorijansko doba.,nf,36,,43,,,
,inter-stimulus,canvas.Screen,2_0_5,,,,,,response,1968.4000000238302,143794.30000001192,143862.76,143870.7,145839.10000002384,146082.5,2024-07-31T05:44:07.397Z,146215.3,_Ss5NYbESu,incremental,anketa,6645cf40bc81b65c5faccf1d,participant,hcpib7dulz9f5vdd,,,mousedown,,Kakve izgrađene u viktorijansko doba te zgrade su izgrađene??,Te su zgrade izgrađene u viktorijansko doba.,nf,36,,43,,,
,Sequence,flow.Sequence,2_0,,,,,,completion,13791.000000023836,131966.80000001192,132033.516,132048.1,145839.10000002384,146084.40000000596,2024-07-31T05:44:07.399Z,146215.3,_Ss5NYbESu,incremental,anketa,6645cf40bc81b65c5faccf1d,participant,hcpib7dulz9f5vdd,,,,,Kakve izgrađene u viktorijansko doba te zgrade su izgrađene??,Te su zgrade izgrađene u viktorijansko doba.,nf,36,,43,,,
,context,canvas.Screen,2_1_0_0,,,,,,response,8255.000000011933,146086.70000001788,146203.94,146215.3,154470.30000001192,154724.80000001192,2024-07-31T05:44:16.039Z,154820.4,_Ss5NYbESu,incremental,anketa,6645cf40bc81b65c5faccf1d,participant,hcpib7dulz9f5vdd,,,click,,Tko je jučer susjedu ukrao kobasicu?,Jučer je riđa mačka susjedu ukrala kobasicu.,gf,,,50,KOBASICU; KOBASICA,Što je ukrala mačka?,
,Timer frame,html.Frame,2_1_0,,,,,,,8510.500000011933,146085.80000001192,146203.94,146215.3,154725.80000001192,154726.20000001788,2024-07-31T05:44:16.041Z,154820.4,_Ss5NYbESu,incremental,anketa,6645cf40bc81b65c5faccf1d,participant,hcpib7dulz9f5vdd,,,,,Tko je jučer susjedu ukrao kobasicu?,Jučer je riđa mačka susjedu ukrala kobasicu.,gf,,,50,KOBASICU; KOBASICA,Što je ukrala mačka?,
,stimulus,canvas.Screen,2_1_1_0,,,,,,response,4486.500000005966,154728,154803.962,154820.4,159306.90000000596,159565.5,2024-07-31T05:44:20.880Z,159692.4,_Ss5NYbESu,incremental,anketa,6645cf40bc81b65c5faccf1d,participant,hcpib7dulz9f5vdd,,7,click @7,,Tko je jučer susjedu ukrao kobasicu?,Jučer je riđa mačka susjedu ukrala kobasicu.,gf,,,50,KOBASICU; KOBASICA,Što je ukrala mačka?,
,Timer frame,html.Frame,2_1_1,,,,,,,4746.000000005966,154727,154803.962,154820.4,159566.40000000596,159567.20000001788,2024-07-31T05:44:20.881Z,159692.4,_Ss5NYbESu,incremental,anketa,6645cf40bc81b65c5faccf1d,participant,hcpib7dulz9f5vdd,,,,,Tko je jučer susjedu ukrao kobasicu?,Jučer je riđa mačka susjedu ukrala kobasicu.,gf,,,50,KOBASICU; KOBASICA,Što je ukrala mačka?,
,Spremanje,canvas.Screen,2_1_2,,,,,,response,1300.3000000178872,159568.20000001788,159684.952,159692.4,160992.70000001788,161227.80000001192,2024-07-31T05:44:22.542Z,161247.1,_Ss5NYbESu,incremental,anketa,6645cf40bc81b65c5faccf1d,participant,hcpib7dulz9f5vdd,,,mousedown,,Tko je jučer susjedu ukrao kobasicu?,Jučer je riđa mačka susjedu ukrala kobasicu.,gf,,,50,KOBASICU; KOBASICA,Što je ukrala mačka?,
,Question form,html.Form,2_1_3,,,,,,form submission,7728.700000011915,161229.20000001788,161242.338,161247.1,168975.80000001192,168976,2024-07-31T05:44:30.290Z,169037.4,_Ss5NYbESu,incremental,anketa,6645cf40bc81b65c5faccf1d,participant,hcpib7dulz9f5vdd,,,,"Kobasicu ",Tko je jučer susjedu ukrao kobasicu?,Jučer je riđa mačka susjedu ukrala kobasicu.,gf,,,50,KOBASICU; KOBASICA,Što je ukrala mačka?,
,Answer indication,canvas.Screen,2_1_4,,,,,,response,2517.4000000119267,168977,169030.214,169037.4,171554.80000001192,171775.5,2024-07-31T05:44:33.090Z,171905.8,_Ss5NYbESu,incremental,anketa,6645cf40bc81b65c5faccf1d,participant,hcpib7dulz9f5vdd,,,mousedown,,Tko je jučer susjedu ukrao kobasicu?,Jučer je riđa mačka susjedu ukrala kobasicu.,gf,,,50,KOBASICU; KOBASICA,Što je ukrala mačka?,
,inter-stimulus,canvas.Screen,2_1_5,,,,,,response,1042.600000005972,171776.70000001788,171899.366,171905.8,172948.40000000596,173181.10000002384,2024-07-31T05:44:34.495Z,173269.5,_Ss5NYbESu,incremental,anketa,6645cf40bc81b65c5faccf1d,participant,hcpib7dulz9f5vdd,,,mousedown,,Tko je jučer susjedu ukrao kobasicu?,Jučer je riđa mačka susjedu ukrala kobasicu.,gf,,,50,KOBASICU; KOBASICA,Što je ukrala mačka?,
,Sequence,flow.Sequence,2_1,,,,,,completion,26733.100000005972,146085.20000001788,146203.94,146215.3,172948.40000000596,173183.60000002384,2024-07-31T05:44:34.498Z,173269.5,_Ss5NYbESu,incremental,anketa,6645cf40bc81b65c5faccf1d,participant,hcpib7dulz9f5vdd,,,,,Tko je jučer susjedu ukrao kobasicu?,Jučer je riđa mačka susjedu ukrala kobasicu.,gf,,,50,KOBASICU; KOBASICA,Što je ukrala mačka?,
,context,canvas.Screen,2_2_0_0,,,,,,response,2792.9000000059605,173185.90000000596,173255.746,173269.5,176062.40000000596,176306,2024-07-31T05:44:37.620Z,176445.3,_Ss5NYbESu,incremental,anketa,6645cf40bc81b65c5faccf1d,participant,hcpib7dulz9f5vdd,,,click,,"Kamo je djevojka razmišljala o slobode, idući?","Djevojka je razmišljala o slobode, idući do mora.",ai,,,23,,,
,Timer frame,html.Frame,2_2_0,,,,,,,3037.5,173184.80000001192,173255.746,173269.5,176307,176307.80000001192,2024-07-31T05:44:37.622Z,176445.3,_Ss5NYbESu,incremental,anketa,6645cf40bc81b65c5faccf1d,participant,hcpib7dulz9f5vdd,,,,,"Kamo je djevojka razmišljala o slobode, idući?","Djevojka je razmišljala o slobode, idući do mora.",ai,,,23,,,
,stimulus,canvas.Screen,2_2_1_0,,,,,,response,3111.600000005972,176309.10000002384,176437.852,176445.3,179556.90000000596,179760.80000001192,2024-07-31T05:44:41.075Z,179871.552,_Ss5NYbESu,incremental,anketa,6645cf40bc81b65c5faccf1d,participant,hcpib7dulz9f5vdd,,1,click @1,,"Kamo je djevojka razmišljala o slobode, idući?","Djevojka je razmišljala o slobode, idući do mora.",ai,,,23,,,
,Timer frame,html.Frame,2_2_1,,,,,,,3316.600000005972,176308.5,176437.852,176445.3,179761.90000000596,179762.70000001788,2024-07-31T05:44:41.077Z,179871.552,_Ss5NYbESu,incremental,anketa,6645cf40bc81b65c5faccf1d,participant,hcpib7dulz9f5vdd,,,,,"Kamo je djevojka razmišljala o slobode, idući?","Djevojka je razmišljala o slobode, idući do mora.",ai,,,23,,,
,Spremanje,canvas.Screen,2_2_2,,,,,,skipped,,179764.30000001192,,,179761.90000000596,179765,2024-07-31T05:44:41.079Z,179871.552,_Ss5NYbESu,incremental,anketa,6645cf40bc81b65c5faccf1d,participant,hcpib7dulz9f5vdd,,,,,"Kamo je djevojka razmišljala o slobode, idući?","Djevojka je razmišljala o slobode, idući do mora.",ai,,,23,,,
,Question form,html.Form,2_2_3,,,,,,skipped,,179765.90000000596,,,179761.90000000596,179766.60000002384,2024-07-31T05:44:41.081Z,179871.552,_Ss5NYbESu,incremental,anketa,6645cf40bc81b65c5faccf1d,participant,hcpib7dulz9f5vdd,,,,,"Kamo je djevojka razmišljala o slobode, idući?","Djevojka je razmišljala o slobode, idući do mora.",ai,,,23,,,
,Answer indication,canvas.Screen,2_2_4,,,,,,skipped,,179776.40000000596,,,179761.90000000596,179777.40000000596,2024-07-31T05:44:41.092Z,179871.552,_Ss5NYbESu,incremental,anketa,6645cf40bc81b65c5faccf1d,participant,hcpib7dulz9f5vdd,,,,,"Kamo je djevojka razmišljala o slobode, idući?","Djevojka je razmišljala o slobode, idući do mora.",ai,,,23,,,
,inter-stimulus,canvas.Screen,2_2_5,,,,,,response,1213.748000011925,179778.20000001788,179871.552,179871.552,181085.30000001192,181322.90000000596,2024-07-31T05:44:42.637Z,181442.1,_Ss5NYbESu,incremental,anketa,6645cf40bc81b65c5faccf1d,participant,hcpib7dulz9f5vdd,,,mousedown,,"Kamo je djevojka razmišljala o slobode, idući?","Djevojka je razmišljala o slobode, idući do mora.",ai,,,23,,,
,Sequence,flow.Sequence,2_2,,,,,,completion,7815.800000011921,173184.5,173255.746,173269.5,181085.30000001192,181324.5,2024-07-31T05:44:42.639Z,181442.1,_Ss5NYbESu,incremental,anketa,6645cf40bc81b65c5faccf1d,participant,hcpib7dulz9f5vdd,,,,,"Kamo je djevojka razmišljala o slobode, idući?","Djevojka je razmišljala o slobode, idući do mora.",ai,,,23,,,
,context,canvas.Screen,2_3_0_0,,,,,,response,4515.300000005955,181327.40000000596,181421.49,181442.1,185957.40000000596,186201.60000002384,2024-07-31T05:44:47.516Z,186289.1,_Ss5NYbESu,incremental,anketa,6645cf40bc81b65c5faccf1d,participant,hcpib7dulz9f5vdd,,,click,,Tko se zaljubio u djevojku kad je bio dijete?,"Kad smo bili djeca, moj prijatelj i ja smo se zaljubili u istu djevojku..",gf,,33,52,,,
,Timer frame,html.Frame,2_3_0,,,,,,,4761.000000023836,181326.20000001788,181421.49,181442.1,186203.10000002384,186204.40000000596,2024-07-31T05:44:47.519Z,186289.1,_Ss5NYbESu,incremental,anketa,6645cf40bc81b65c5faccf1d,participant,hcpib7dulz9f5vdd,,,,,Tko se zaljubio u djevojku kad je bio dijete?,"Kad smo bili djeca, moj prijatelj i ja smo se zaljubili u istu djevojku..",gf,,33,52,,,
,stimulus,canvas.Screen,2_3_1_0,,,,,,response,4556.600000017876,186206.20000001788,186273.386,186289.1,190845.70000001788,191078.80000001192,2024-07-31T05:44:52.393Z,191194.6,_Ss5NYbESu,incremental,anketa,6645cf40bc81b65c5faccf1d,participant,hcpib7dulz9f5vdd,,4,click @4,,Tko se zaljubio u djevojku kad je bio dijete?,"Kad smo bili djeca, moj prijatelj i ja smo se zaljubili u istu djevojku..",gf,,33,52,,,
,Timer frame,html.Frame,2_3_1,,,,,,,4790.500000023836,186205.30000001192,186273.386,186289.1,191079.60000002384,191080.5,2024-07-31T05:44:52.395Z,191194.6,_Ss5NYbESu,incremental,anketa,6645cf40bc81b65c5faccf1d,participant,hcpib7dulz9f5vdd,,,,,Tko se zaljubio u djevojku kad je bio dijete?,"Kad smo bili djeca, moj prijatelj i ja smo se zaljubili u istu djevojku..",gf,,33,52,,,
,Spremanje,canvas.Screen,2_3_2,,,,,,skipped,,191081.20000001788,,,191079.60000002384,191082,2024-07-31T05:44:52.396Z,191194.6,_Ss5NYbESu,incremental,anketa,6645cf40bc81b65c5faccf1d,participant,hcpib7dulz9f5vdd,,,,,Tko se zaljubio u djevojku kad je bio dijete?,"Kad smo bili djeca, moj prijatelj i ja smo se zaljubili u istu djevojku..",gf,,33,52,,,
,Question form,html.Form,2_3_3,,,,,,skipped,,191082.70000001788,,,191079.60000002384,191083.40000000596,2024-07-31T05:44:52.398Z,191194.6,_Ss5NYbESu,incremental,anketa,6645cf40bc81b65c5faccf1d,participant,hcpib7dulz9f5vdd,,,,,Tko se zaljubio u djevojku kad je bio dijete?,"Kad smo bili djeca, moj prijatelj i ja smo se zaljubili u istu djevojku..",gf,,33,52,,,
,Answer indication,canvas.Screen,2_3_4,,,,,,skipped,,191090.60000002384,,,191079.60000002384,191091.5,2024-07-31T05:44:52.406Z,191194.6,_Ss5NYbESu,incremental,anketa,6645cf40bc81b65c5faccf1d,participant,hcpib7dulz9f5vdd,,,,,Tko se zaljubio u djevojku kad je bio dijete?,"Kad smo bili djeca, moj prijatelj i ja smo se zaljubili u istu djevojku..",gf,,33,52,,,
,inter-stimulus,canvas.Screen,2_3_5,,,,,,response,970.1000000178756,191092.30000001192,191178.226,191194.6,192164.70000001788,192397.10000002384,2024-07-31T05:44:53.712Z,192491.7,_Ss5NYbESu,incremental,anketa,6645cf40bc81b65c5faccf1d,participant,hcpib7dulz9f5vdd,,,mousedown,,Tko se zaljubio u djevojku kad je bio dijete?,"Kad smo bili djeca, moj prijatelj i ja smo se zaljubili u istu djevojku..",gf,,33,52,,,
,Sequence,flow.Sequence,2_3,,,,,,completion,10722.600000017876,181325.80000001192,181421.49,181442.1,192164.70000001788,192399,2024-07-31T05:44:53.713Z,192491.7,_Ss5NYbESu,incremental,anketa,6645cf40bc81b65c5faccf1d,participant,hcpib7dulz9f5vdd,,,,,Tko se zaljubio u djevojku kad je bio dijete?,"Kad smo bili djeca, moj prijatelj i ja smo se zaljubili u istu djevojku..",gf,,33,52,,,
,context,canvas.Screen,2_4_0_0,,,,,,response,4370.200000005949,192400.60000002384,192477.882,192491.7,196861.90000000596,197101.5,2024-07-31T05:44:58.416Z,197205.6,_Ss5NYbESu,incremental,anketa,6645cf40bc81b65c5faccf1d,participant,hcpib7dulz9f5vdd,,,click,,Ove godine su se Viktor i Marta vjenčao.,Victor i Marta vjenčali su se ove godine.,nf,,,38,,,
,Timer frame,html.Frame,2_4_0,,,,,,,4610.200000005949,192399.90000000596,192477.882,192491.7,197101.90000000596,197102.10000002384,2024-07-31T05:44:58.416Z,197205.6,_Ss5NYbESu,incremental,anketa,6645cf40bc81b65c5faccf1d,participant,hcpib7dulz9f5vdd,,,,,Ove godine su se Viktor i Marta vjenčao.,Victor i Marta vjenčali su se ove godine.,nf,,,38,,,
,stimulus,canvas.Screen,2_4_1_0,,,,,,response,2102.8000000059546,197102.30000001192,197198.084,197205.6,199308.40000000596,199518.90000000596,2024-07-31T05:45:00.833Z,199616.7,_Ss5NYbESu,incremental,anketa,6645cf40bc81b65c5faccf1d,participant,hcpib7dulz9f5vdd,,1,click @1,,Ove godine su se Viktor i Marta vjenčao.,Victor i Marta vjenčali su se ove godine.,nf,,,38,,,
,Timer frame,html.Frame,2_4_1,,,,,,,2314.500000023836,197102.20000001788,197198.084,197205.6,199520.10000002384,199520.90000000596,2024-07-31T05:45:00.835Z,199616.7,_Ss5NYbESu,incremental,anketa,6645cf40bc81b65c5faccf1d,participant,hcpib7dulz9f5vdd,,,,,Ove godine su se Viktor i Marta vjenčao.,Victor i Marta vjenčali su se ove godine.,nf,,,38,,,
,Spremanje,canvas.Screen,2_4_2,,,,,,skipped,,199521.70000001788,,,199520.10000002384,199522,2024-07-31T05:45:00.836Z,199616.7,_Ss5NYbESu,incremental,anketa,6645cf40bc81b65c5faccf1d,participant,hcpib7dulz9f5vdd,,,,,Ove godine su se Viktor i Marta vjenčao.,Victor i Marta vjenčali su se ove godine.,nf,,,38,,,
,Question form,html.Form,2_4_3,,,,,,skipped,,199522.40000000596,,,199520.10000002384,199522.90000000596,2024-07-31T05:45:00.837Z,199616.7,_Ss5NYbESu,incremental,anketa,6645cf40bc81b65c5faccf1d,participant,hcpib7dulz9f5vdd,,,,,Ove godine su se Viktor i Marta vjenčao.,Victor i Marta vjenčali su se ove godine.,nf,,,38,,,
,Answer indication,canvas.Screen,2_4_4,,,,,,skipped,,199531.60000002384,,,199520.10000002384,199532.5,2024-07-31T05:45:00.847Z,199616.7,_Ss5NYbESu,incremental,anketa,6645cf40bc81b65c5faccf1d,participant,hcpib7dulz9f5vdd,,,,,Ove godine su se Viktor i Marta vjenčao.,Victor i Marta vjenčali su se ove godine.,nf,,,38,,,
,inter-stimulus,canvas.Screen,2_4_5,,,,,,response,1046.0000000178698,199533.30000001192,199609.22,199616.7,200662.70000001788,200881,2024-07-31T05:45:02.195Z,200988.4,_Ss5NYbESu,incremental,anketa,6645cf40bc81b65c5faccf1d,participant,hcpib7dulz9f5vdd,,,mousedown,,Ove godine su se Viktor i Marta vjenčao.,Victor i Marta vjenčali su se ove godine.,nf,,,38,,,
,Sequence,flow.Sequence,2_4,,,,,,completion,8171.00000001787,192399.70000001788,192477.882,192491.7,200662.70000001788,200882.70000001788,2024-07-31T05:45:02.197Z,200988.4,_Ss5NYbESu,incremental,anketa,6645cf40bc81b65c5faccf1d,participant,hcpib7dulz9f5vdd,,,,,Ove godine su se Viktor i Marta vjenčao.,Victor i Marta vjenčali su se ove godine.,nf,,,38,,,
,context,canvas.Screen,2_5_0_0,,,,,,response,6991.100000000006,200884.80000001192,200966.646,200988.4,207979.5,208207.80000001192,2024-07-31T05:45:09.522Z,208304.9,_Ss5NYbESu,incremental,anketa,6645cf40bc81b65c5faccf1d,participant,hcpib7dulz9f5vdd,,,click,,"Tko se nadaš da će napraviti prezentaciju, a Đure nacrtati sliku??","Nadaš se da će Vesna napraviti prezentaciju, a Đure nacrtati sliku..",csi,42,44,2,,,
,Timer frame,html.Frame,2_5_0,,,,,,,7220.600000000006,200883.90000000596,200966.646,200988.4,208209,208209.90000000596,2024-07-31T05:45:09.524Z,208304.9,_Ss5NYbESu,incremental,anketa,6645cf40bc81b65c5faccf1d,participant,hcpib7dulz9f5vdd,,,,,"Tko se nadaš da će napraviti prezentaciju, a Đure nacrtati sliku??","Nadaš se da će Vesna napraviti prezentaciju, a Đure nacrtati sliku..",csi,42,44,2,,,
,stimulus,canvas.Screen,2_5_1_0,,,,,,response,2389.100000000006,208211.5,208288.758,208304.9,210694,210883.80000001192,2024-07-31T05:45:12.198Z,211040.3,_Ss5NYbESu,incremental,anketa,6645cf40bc81b65c5faccf1d,participant,hcpib7dulz9f5vdd,,1,click @1,,"Tko se nadaš da će napraviti prezentaciju, a Đure nacrtati sliku??","Nadaš se da će Vesna napraviti prezentaciju, a Đure nacrtati sliku..",csi,42,44,2,,,
,Timer frame,html.Frame,2_5_1,,,,,,,2579.7000000238477,208210.70000001788,208288.758,208304.9,210884.60000002384,210885.40000000596,2024-07-31T05:45:12.200Z,211040.3,_Ss5NYbESu,incremental,anketa,6645cf40bc81b65c5faccf1d,participant,hcpib7dulz9f5vdd,,,,,"Tko se nadaš da će napraviti prezentaciju, a Đure nacrtati sliku??","Nadaš se da će Vesna napraviti prezentaciju, a Đure nacrtati sliku..",csi,42,44,2,,,
,Spremanje,canvas.Screen,2_5_2,,,,,,skipped,,210886.10000002384,,,210884.60000002384,210886.70000001788,2024-07-31T05:45:12.201Z,211040.3,_Ss5NYbESu,incremental,anketa,6645cf40bc81b65c5faccf1d,participant,hcpib7dulz9f5vdd,,,,,"Tko se nadaš da će napraviti prezentaciju, a Đure nacrtati sliku??","Nadaš se da će Vesna napraviti prezentaciju, a Đure nacrtati sliku..",csi,42,44,2,,,
,Question form,html.Form,2_5_3,,,,,,skipped,,210887.40000000596,,,210884.60000002384,210887.80000001192,2024-07-31T05:45:12.202Z,211040.3,_Ss5NYbESu,incremental,anketa,6645cf40bc81b65c5faccf1d,participant,hcpib7dulz9f5vdd,,,,,"Tko se nadaš da će napraviti prezentaciju, a Đure nacrtati sliku??","Nadaš se da će Vesna napraviti prezentaciju, a Đure nacrtati sliku..",csi,42,44,2,,,
,Answer indication,canvas.Screen,2_5_4,,,,,,skipped,,210891.5,,,210884.60000002384,210892.10000002384,2024-07-31T05:45:12.206Z,211040.3,_Ss5NYbESu,incremental,anketa,6645cf40bc81b65c5faccf1d,participant,hcpib7dulz9f5vdd,,,,,"Tko se nadaš da će napraviti prezentaciju, a Đure nacrtati sliku??","Nadaš se da će Vesna napraviti prezentaciju, a Đure nacrtati sliku..",csi,42,44,2,,,
,inter-stimulus,canvas.Screen,2_5_5,,,,,,response,896.8000000238535,210892.60000002384,211033.016,211040.3,211937.10000002384,212171.20000001788,2024-07-31T05:45:13.485Z,212270.7,_Ss5NYbESu,incremental,anketa,6645cf40bc81b65c5faccf1d,participant,hcpib7dulz9f5vdd,,,mousedown,,"Tko se nadaš da će napraviti prezentaciju, a Đure nacrtati sliku??","Nadaš se da će Vesna napraviti prezentaciju, a Đure nacrtati sliku..",csi,42,44,2,,,
,Sequence,flow.Sequence,2_5,,,,,,completion,10948.700000023848,200883.60000002384,200966.646,200988.4,211937.10000002384,212173.5,2024-07-31T05:45:13.488Z,212270.7,_Ss5NYbESu,incremental,anketa,6645cf40bc81b65c5faccf1d,participant,hcpib7dulz9f5vdd,,,,,"Tko se nadaš da će napraviti prezentaciju, a Đure nacrtati sliku??","Nadaš se da će Vesna napraviti prezentaciju, a Đure nacrtati sliku..",csi,42,44,2,,,
,context,canvas.Screen,2_6_0_0,,,,,,response,4772.299999999988,212175.40000000596,212256.918,212270.7,217043,217262.40000000596,2024-07-31T05:45:18.577Z,217375.5,_Ss5NYbESu,incremental,anketa,6645cf40bc81b65c5faccf1d,participant,hcpib7dulz9f5vdd,,,click,,Što je Inna tri sata pročitala?,Inna je tri sata čitala zanimljiv članak.,nf,,,39,,,
,Timer frame,html.Frame,2_6_0,,,,,,,4992.600000011909,212174.60000002384,212256.918,212270.7,217263.30000001192,217264,2024-07-31T05:45:18.578Z,217375.5,_Ss5NYbESu,incremental,anketa,6645cf40bc81b65c5faccf1d,participant,hcpib7dulz9f5vdd,,,,,Što je Inna tri sata pročitala?,Inna je tri sata čitala zanimljiv članak.,nf,,,39,,,
,stimulus,canvas.Screen,2_6_1_0,,,,,,response,2272.4000000059605,217265.5,217359.718,217375.5,219647.90000000596,219844.10000002384,2024-07-31T05:45:21.158Z,219944.96,_Ss5NYbESu,incremental,anketa,6645cf40bc81b65c5faccf1d,participant,hcpib7dulz9f5vdd,,1,click @1,,Što je Inna tri sata pročitala?,Inna je tri sata čitala zanimljiv članak.,nf,,,39,,,
,Timer frame,html.Frame,2_6_1,,,,,,,2470,217264.60000002384,217359.718,217375.5,219845.5,219846.5,2024-07-31T05:45:21.161Z,219944.96,_Ss5NYbESu,incremental,anketa,6645cf40bc81b65c5faccf1d,participant,hcpib7dulz9f5vdd,,,,,Što je Inna tri sata pročitala?,Inna je tri sata čitala zanimljiv članak.,nf,,,39,,,
,Spremanje,canvas.Screen,2_6_2,,,,,,skipped,,219847.40000000596,,,219845.5,219848.20000001788,2024-07-31T05:45:21.162Z,219944.96,_Ss5NYbESu,incremental,anketa,6645cf40bc81b65c5faccf1d,participant,hcpib7dulz9f5vdd,,,,,Što je Inna tri sata pročitala?,Inna je tri sata čitala zanimljiv članak.,nf,,,39,,,
,Question form,html.Form,2_6_3,,,,,,skipped,,219848.90000000596,,,219845.5,219849.90000000596,2024-07-31T05:45:21.164Z,219944.96,_Ss5NYbESu,incremental,anketa,6645cf40bc81b65c5faccf1d,participant,hcpib7dulz9f5vdd,,,,,Što je Inna tri sata pročitala?,Inna je tri sata čitala zanimljiv članak.,nf,,,39,,,
,Answer indication,canvas.Screen,2_6_4,,,,,,skipped,,219856.80000001192,,,219845.5,219858,2024-07-31T05:45:21.172Z,219944.96,_Ss5NYbESu,incremental,anketa,6645cf40bc81b65c5faccf1d,participant,hcpib7dulz9f5vdd,,,,,Što je Inna tri sata pročitala?,Inna je tri sata čitala zanimljiv članak.,nf,,,39,,,
,inter-stimulus,canvas.Screen,2_6_5,,,,,,response,827.3400000119291,219858.90000000596,219944.96,219944.96,220772.30000001192,221002.30000001192,2024-07-31T05:45:22.317Z,221092,_Ss5NYbESu,incremental,anketa,6645cf40bc81b65c5faccf1d,participant,hcpib7dulz9f5vdd,,,mousedown,,Što je Inna tri sata pročitala?,Inna je tri sata čitala zanimljiv članak.,nf,,,39,,,
,Sequence,flow.Sequence,2_6,,,,,,completion,8501.60000001191,212174.30000001192,212256.918,212270.7,220772.30000001192,221003,2024-07-31T05:45:22.317Z,221092,_Ss5NYbESu,incremental,anketa,6645cf40bc81b65c5faccf1d,participant,hcpib7dulz9f5vdd,,,,,Što je Inna tri sata pročitala?,Inna je tri sata čitala zanimljiv članak.,nf,,,39,,,
,context,canvas.Screen,2_7_0_0,,,,,,response,2456.2000000178814,221003.30000001192,221078.248,221092,223548.20000001788,223787.40000000596,2024-07-31T05:45:25.102Z,223877.1,_Ss5NYbESu,incremental,anketa,6645cf40bc81b65c5faccf1d,participant,hcpib7dulz9f5vdd,,,click,,Čije sam cvijeće izašao iz kuće i zaboravio zaliti?,Izašao sam iz kuće i zaboravio zaliti majkino cvijeće.,csi,0,0,4,ZALITI MAJKINO CVIJEĆE; ZALITI MAMINO CVIJECE; ZALITI CVIJECE MAJKE; ZALITI MAJČINO CVIJEĆE; ZALITI CVIJEĆE MAJKE; ZALITI MAJKINO CVIJECE; MAJKINO CVIJEĆE ZALITI; MAJKINO CVIJECE ZALITI; ZALITI CVIJECE; ZALITI CVIJEĆE; ZALITI CVJEĆE; ZALITI CVJECE,Što sam zaboravio napraviti?,
,Timer frame,html.Frame,2_7_0,,,,,,,2697,221003.10000002384,221078.248,221092,223789,223790.10000002384,2024-07-31T05:45:25.104Z,223877.1,_Ss5NYbESu,incremental,anketa,6645cf40bc81b65c5faccf1d,participant,hcpib7dulz9f5vdd,,,,,Čije sam cvijeće izašao iz kuće i zaboravio zaliti?,Izašao sam iz kuće i zaboravio zaliti majkino cvijeće.,csi,0,0,4,ZALITI MAJKINO CVIJEĆE; ZALITI MAMINO CVIJECE; ZALITI CVIJECE MAJKE; ZALITI MAJČINO CVIJEĆE; ZALITI CVIJEĆE MAJKE; ZALITI MAJKINO CVIJECE; MAJKINO CVIJEĆE ZALITI; MAJKINO CVIJECE ZALITI; ZALITI CVIJECE; ZALITI CVIJEĆE; ZALITI CVJEĆE; ZALITI CVJECE,Što sam zaboravio napraviti?,
,stimulus,canvas.Screen,2_7_1_0,,,,,,response,3321.000000023836,223791.60000002384,223861.452,223877.1,227198.10000002384,227387.30000001192,2024-07-31T05:45:28.702Z,227510.4,_Ss5NYbESu,incremental,anketa,6645cf40bc81b65c5faccf1d,participant,hcpib7dulz9f5vdd,,1,click @1,,Čije sam cvijeće izašao iz kuće i zaboravio zaliti?,Izašao sam iz kuće i zaboravio zaliti majkino cvijeće.,csi,0,0,4,ZALITI MAJKINO CVIJEĆE; ZALITI MAMINO CVIJECE; ZALITI CVIJECE MAJKE; ZALITI MAJČINO CVIJEĆE; ZALITI CVIJEĆE MAJKE; ZALITI MAJKINO CVIJECE; MAJKINO CVIJEĆE ZALITI; MAJKINO CVIJECE ZALITI; ZALITI CVIJECE; ZALITI CVIJEĆE; ZALITI CVJEĆE; ZALITI CVJECE,Što sam zaboravio napraviti?,
,Timer frame,html.Frame,2_7_1,,,,,,,3511.1000000178756,223790.80000001192,223861.452,223877.1,227388.20000001788,227388.90000000596,2024-07-31T05:45:28.703Z,227510.4,_Ss5NYbESu,incremental,anketa,6645cf40bc81b65c5faccf1d,participant,hcpib7dulz9f5vdd,,,,,Čije sam cvijeće izašao iz kuće i zaboravio zaliti?,Izašao sam iz kuće i zaboravio zaliti majkino cvijeće.,csi,0,0,4,ZALITI MAJKINO CVIJEĆE; ZALITI MAMINO CVIJECE; ZALITI CVIJECE MAJKE; ZALITI MAJČINO CVIJEĆE; ZALITI CVIJEĆE MAJKE; ZALITI MAJKINO CVIJECE; MAJKINO CVIJEĆE ZALITI; MAJKINO CVIJECE ZALITI; ZALITI CVIJECE; ZALITI CVIJEĆE; ZALITI CVJEĆE; ZALITI CVJECE,Što sam zaboravio napraviti?,
,Spremanje,canvas.Screen,2_7_2,,,,,,response,1186.8000000178872,227389.80000001192,227494.454,227510.4,228697.20000001788,228923.40000000596,2024-07-31T05:45:30.238Z,228948.8,_Ss5NYbESu,incremental,anketa,6645cf40bc81b65c5faccf1d,participant,hcpib7dulz9f5vdd,,,mousedown,,Čije sam cvijeće izašao iz kuće i zaboravio zaliti?,Izašao sam iz kuće i zaboravio zaliti majkino cvijeće.,csi,0,0,4,ZALITI MAJKINO CVIJEĆE; ZALITI MAMINO CVIJECE; ZALITI CVIJECE MAJKE; ZALITI MAJČINO CVIJEĆE; ZALITI CVIJEĆE MAJKE; ZALITI MAJKINO CVIJECE; MAJKINO CVIJEĆE ZALITI; MAJKINO CVIJECE ZALITI; ZALITI CVIJECE; ZALITI CVIJEĆE; ZALITI CVJEĆE; ZALITI CVJECE,Što sam zaboravio napraviti?,
,Question form,html.Form,2_7_3,,,,,,form submission,6392.600000005972,228925,228943.676,228948.8,235341.40000000596,235341.70000001788,2024-07-31T05:45:36.656Z,235408.9,_Ss5NYbESu,incremental,anketa,6645cf40bc81b65c5faccf1d,participant,hcpib7dulz9f5vdd,,,,Zaliti cvijeće,Čije sam cvijeće izašao iz kuće i zaboravio zaliti?,Izašao sam iz kuće i zaboravio zaliti majkino cvijeće.,csi,0,0,4,ZALITI MAJKINO CVIJEĆE; ZALITI MAMINO CVIJECE; ZALITI CVIJECE MAJKE; ZALITI MAJČINO CVIJEĆE; ZALITI CVIJEĆE MAJKE; ZALITI MAJKINO CVIJECE; MAJKINO CVIJEĆE ZALITI; MAJKINO CVIJECE ZALITI; ZALITI CVIJECE; ZALITI CVIJEĆE; ZALITI CVJEĆE; ZALITI CVJECE,Što sam zaboravio napraviti?,
,Answer indication,canvas.Screen,2_7_4,,,,,,response,1450.5000000059663,235343.40000000596,235401.744,235408.9,236859.40000000596,237116.40000000596,2024-07-31T05:45:38.431Z,237237.8,_Ss5NYbESu,incremental,anketa,6645cf40bc81b65c5faccf1d,participant,hcpib7dulz9f5vdd,,,mousedown,,Čije sam cvijeće izašao iz kuće i zaboravio zaliti?,Izašao sam iz kuće i zaboravio zaliti majkino cvijeće.,csi,0,0,4,ZALITI MAJKINO CVIJEĆE; ZALITI MAMINO CVIJECE; ZALITI CVIJECE MAJKE; ZALITI MAJČINO CVIJEĆE; ZALITI CVIJEĆE MAJKE; ZALITI MAJKINO CVIJECE; MAJKINO CVIJEĆE ZALITI; MAJKINO CVIJECE ZALITI; ZALITI CVIJECE; ZALITI CVIJEĆE; ZALITI CVJEĆE; ZALITI CVJECE,Što sam zaboravio napraviti?,
,inter-stimulus,canvas.Screen,2_7_5,,,,,,response,985.0000000119326,237118,237225.494,237237.8,238222.80000001192,238479,2024-07-31T05:45:39.793Z,238576.5,_Ss5NYbESu,incremental,anketa,6645cf40bc81b65c5faccf1d,participant,hcpib7dulz9f5vdd,,,mousedown,,Čije sam cvijeće izašao iz kuće i zaboravio zaliti?,Izašao sam iz kuće i zaboravio zaliti majkino cvijeće.,csi,0,0,4,ZALITI MAJKINO CVIJEĆE; ZALITI MAMINO CVIJECE; ZALITI CVIJECE MAJKE; ZALITI MAJČINO CVIJEĆE; ZALITI CVIJEĆE MAJKE; ZALITI MAJKINO CVIJECE; MAJKINO CVIJEĆE ZALITI; MAJKINO CVIJECE ZALITI; ZALITI CVIJECE; ZALITI CVIJEĆE; ZALITI CVJEĆE; ZALITI CVJECE,Što sam zaboravio napraviti?,
,Sequence,flow.Sequence,2_7,,,,,,completion,17130.80000001192,221003,221078.248,221092,238222.80000001192,238480.80000001192,2024-07-31T05:45:39.795Z,238576.5,_Ss5NYbESu,incremental,anketa,6645cf40bc81b65c5faccf1d,participant,hcpib7dulz9f5vdd,,,,,Čije sam cvijeće izašao iz kuće i zaboravio zaliti?,Izašao sam iz kuće i zaboravio zaliti majkino cvijeće.,csi,0,0,4,ZALITI MAJKINO CVIJEĆE; ZALITI MAMINO CVIJECE; ZALITI CVIJECE MAJKE; ZALITI MAJČINO CVIJEĆE; ZALITI CVIJEĆE MAJKE; ZALITI MAJKINO CVIJECE; MAJKINO CVIJEĆE ZALITI; MAJKINO CVIJECE ZALITI; ZALITI CVIJECE; ZALITI CVIJEĆE; ZALITI CVJEĆE; ZALITI CVJECE,Što sam zaboravio napraviti?,
,context,canvas.Screen,2_8_0_0,,,,,,response,4744.9000000059605,238482.40000000596,238571.08,238576.5,243321.40000000596,243574.30000001192,2024-07-31T05:45:44.889Z,243697.9,_Ss5NYbESu,incremental,anketa,6645cf40bc81b65c5faccf1d,participant,hcpib7dulz9f5vdd,,,click,,"Što je on plakao, čitajući?","On je plakao, čitajući knjigu.",ai,,,22,,,
,Timer frame,html.Frame,2_8_0,,,,,,,4998.800000011921,238481.80000001192,238571.08,238576.5,243575.30000001192,243576.20000001788,2024-07-31T05:45:44.891Z,243697.9,_Ss5NYbESu,incremental,anketa,6645cf40bc81b65c5faccf1d,participant,hcpib7dulz9f5vdd,,,,,"Što je on plakao, čitajući?","On je plakao, čitajući knjigu.",ai,,,22,,,
,stimulus,canvas.Screen,2_8_1_0,,,,,,response,2049.100000000006,243577.90000000596,243682.384,243697.9,245747,245955,2024-07-31T05:45:47.269Z,246051.686,_Ss5NYbESu,incremental,anketa,6645cf40bc81b65c5faccf1d,participant,hcpib7dulz9f5vdd,,1,click @1,,"Što je on plakao, čitajući?","On je plakao, čitajući knjigu.",ai,,,22,,,
,Timer frame,html.Frame,2_8_1,,,,,,,2258.2000000238477,243577,243682.384,243697.9,245956.10000002384,245956.90000000596,2024-07-31T05:45:47.271Z,246051.686,_Ss5NYbESu,incremental,anketa,6645cf40bc81b65c5faccf1d,participant,hcpib7dulz9f5vdd,,,,,"Što je on plakao, čitajući?","On je plakao, čitajući knjigu.",ai,,,22,,,
,Spremanje,canvas.Screen,2_8_2,,,,,,skipped,,245957.90000000596,,,245956.10000002384,245958.90000000596,2024-07-31T05:45:47.273Z,246051.686,_Ss5NYbESu,incremental,anketa,6645cf40bc81b65c5faccf1d,participant,hcpib7dulz9f5vdd,,,,,"Što je on plakao, čitajući?","On je plakao, čitajući knjigu.",ai,,,22,,,
,Question form,html.Form,2_8_3,,,,,,skipped,,245959.60000002384,,,245956.10000002384,245960.30000001192,2024-07-31T05:45:47.275Z,246051.686,_Ss5NYbESu,incremental,anketa,6645cf40bc81b65c5faccf1d,participant,hcpib7dulz9f5vdd,,,,,"Što je on plakao, čitajući?","On je plakao, čitajući knjigu.",ai,,,22,,,
,Answer indication,canvas.Screen,2_8_4,,,,,,skipped,,245968.70000001788,,,245956.10000002384,245969.80000001192,2024-07-31T05:45:47.284Z,246051.686,_Ss5NYbESu,incremental,anketa,6645cf40bc81b65c5faccf1d,participant,hcpib7dulz9f5vdd,,,,,"Što je on plakao, čitajući?","On je plakao, čitajući knjigu.",ai,,,22,,,
,inter-stimulus,canvas.Screen,2_8_5,,,,,,response,847.7140000059735,245970.5,246051.686,246051.686,246899.40000000596,247150.60000002384,2024-07-31T05:45:48.465Z,247264.7,_Ss5NYbESu,incremental,anketa,6645cf40bc81b65c5faccf1d,participant,hcpib7dulz9f5vdd,,,mousedown,,"Što je on plakao, čitajući?","On je plakao, čitajući knjigu.",ai,,,22,,,
,Sequence,flow.Sequence,2_8,,,,,,completion,8322.90000000596,238481.5,238571.08,238576.5,246899.40000000596,247152.20000001788,2024-07-31T05:45:48.466Z,247264.7,_Ss5NYbESu,incremental,anketa,6645cf40bc81b65c5faccf1d,participant,hcpib7dulz9f5vdd,,,,,"Što je on plakao, čitajući?","On je plakao, čitajući knjigu.",ai,,,22,,,
,context,canvas.Screen,2_9_0_0,,,,,,response,3292.90000002383,247153.70000001788,247251.638,247264.7,250557.60000002384,250812,2024-07-31T05:45:52.126Z,250906.3,_Ss5NYbESu,incremental,anketa,6645cf40bc81b65c5faccf1d,participant,hcpib7dulz9f5vdd,,,click,,"Koliko čega Luka je zaboravio, on mi je posudio?","Luka je zaboravio, koliko mi je novca posudio.",ai,,,28,,,
,Timer frame,html.Frame,2_9_0,,,,,,,3548.200000005949,247152.90000000596,247251.638,247264.7,250812.90000000596,250813.60000002384,2024-07-31T05:45:52.128Z,250906.3,_Ss5NYbESu,incremental,anketa,6645cf40bc81b65c5faccf1d,participant,hcpib7dulz9f5vdd,,,,,"Koliko čega Luka je zaboravio, on mi je posudio?","Luka je zaboravio, koliko mi je novca posudio.",ai,,,28,,,
,stimulus,canvas.Screen,2_9_1_0,,,,,,response,1424.600000005972,250814.90000000596,250898.72,250906.3,252330.90000000596,252583.10000002384,2024-07-31T05:45:53.897Z,252718.7,_Ss5NYbESu,incremental,anketa,6645cf40bc81b65c5faccf1d,participant,hcpib7dulz9f5vdd,,1,click @1,,"Koliko čega Luka je zaboravio, on mi je posudio?","Luka je zaboravio, koliko mi je novca posudio.",ai,,,28,,,
,Timer frame,html.Frame,2_9_1,,,,,,,1677.3000000238535,250814.20000001788,250898.72,250906.3,252583.60000002384,252584,2024-07-31T05:45:53.898Z,252718.7,_Ss5NYbESu,incremental,anketa,6645cf40bc81b65c5faccf1d,participant,hcpib7dulz9f5vdd,,,,,"Koliko čega Luka je zaboravio, on mi je posudio?","Luka je zaboravio, koliko mi je novca posudio.",ai,,,28,,,
,Spremanje,canvas.Screen,2_9_2,,,,,,skipped,,252584.40000000596,,,252583.60000002384,252584.70000001788,2024-07-31T05:45:53.899Z,252718.7,_Ss5NYbESu,incremental,anketa,6645cf40bc81b65c5faccf1d,participant,hcpib7dulz9f5vdd,,,,,"Koliko čega Luka je zaboravio, on mi je posudio?","Luka je zaboravio, koliko mi je novca posudio.",ai,,,28,,,
,Question form,html.Form,2_9_3,,,,,,skipped,,252585,,,252583.60000002384,252585.5,2024-07-31T05:45:53.900Z,252718.7,_Ss5NYbESu,incremental,anketa,6645cf40bc81b65c5faccf1d,participant,hcpib7dulz9f5vdd,,,,,"Koliko čega Luka je zaboravio, on mi je posudio?","Luka je zaboravio, koliko mi je novca posudio.",ai,,,28,,,
,Answer indication,canvas.Screen,2_9_4,,,,,,skipped,,252590.60000002384,,,252583.60000002384,252591.70000001788,2024-07-31T05:45:53.906Z,252718.7,_Ss5NYbESu,incremental,anketa,6645cf40bc81b65c5faccf1d,participant,hcpib7dulz9f5vdd,,,,,"Koliko čega Luka je zaboravio, on mi je posudio?","Luka je zaboravio, koliko mi je novca posudio.",ai,,,28,,,
,inter-stimulus,canvas.Screen,2_9_5,,,,,,response,880.2000000059488,252592.60000002384,252710.892,252718.7,253598.90000000596,253857.30000001192,2024-07-31T05:45:55.172Z,253949.3,_Ss5NYbESu,incremental,anketa,6645cf40bc81b65c5faccf1d,participant,hcpib7dulz9f5vdd,,,mousedown,,"Koliko čega Luka je zaboravio, on mi je posudio?","Luka je zaboravio, koliko mi je novca posudio.",ai,,,28,,,
,Sequence,flow.Sequence,2_9,,,,,,completion,6334.200000005949,247152.80000001192,247251.638,247264.7,253598.90000000596,253859.20000001788,2024-07-31T05:45:55.174Z,253949.3,_Ss5NYbESu,incremental,anketa,6645cf40bc81b65c5faccf1d,participant,hcpib7dulz9f5vdd,,,,,"Koliko čega Luka je zaboravio, on mi je posudio?","Luka je zaboravio, koliko mi je novca posudio.",ai,,,28,,,
,context,canvas.Screen,2_10_0_0,,,,,,response,5278.900000017893,253861.10000002384,253935.318,253949.3,259228.20000001788,259494.40000000596,2024-07-31T05:46:00.809Z,259627.8,_Ss5NYbESu,incremental,anketa,6645cf40bc81b65c5faccf1d,participant,hcpib7dulz9f5vdd,,,click,,Što Miloš je opljačkao banku da kupi?,Miloš je opljačkao banku da kupi kuću.,ai,,,20,,,
,Timer frame,html.Frame,2_10_0,,,,,,,5546.000000011933,253860.40000000596,253935.318,253949.3,259495.30000001192,259496.10000002384,2024-07-31T05:46:00.810Z,259627.8,_Ss5NYbESu,incremental,anketa,6645cf40bc81b65c5faccf1d,participant,hcpib7dulz9f5vdd,,,,,Što Miloš je opljačkao banku da kupi?,Miloš je opljačkao banku da kupi kuću.,ai,,,20,,,
,stimulus,canvas.Screen,2_10_1_0,,,,,,response,4321.000000011933,259497.80000001192,259620.448,259627.8,263948.8000000119,264192.10000002384,2024-07-31T05:46:05.506Z,264283.6,_Ss5NYbESu,incremental,anketa,6645cf40bc81b65c5faccf1d,participant,hcpib7dulz9f5vdd,,1,click @1,,Što Miloš je opljačkao banku da kupi?,Miloš je opljačkao banku da kupi kuću.,ai,,,20,,,
,Timer frame,html.Frame,2_10_1,,,,,,,4565.000000011933,259496.80000001192,259620.448,259627.8,264192.8000000119,264193.8000000119,2024-07-31T05:46:05.508Z,264283.6,_Ss5NYbESu,incremental,anketa,6645cf40bc81b65c5faccf1d,participant,hcpib7dulz9f5vdd,,,,,Što Miloš je opljačkao banku da kupi?,Miloš je opljačkao banku da kupi kuću.,ai,,,20,,,
,Spremanje,canvas.Screen,2_10_2,,,,,,skipped,,264194.7000000179,,,264192.8000000119,264195.3000000119,2024-07-31T05:46:05.510Z,264283.6,_Ss5NYbESu,incremental,anketa,6645cf40bc81b65c5faccf1d,participant,hcpib7dulz9f5vdd,,,,,Što Miloš je opljačkao banku da kupi?,Miloš je opljačkao banku da kupi kuću.,ai,,,20,,,
,Question form,html.Form,2_10_3,,,,,,skipped,,264196,,,264192.8000000119,264196.60000002384,2024-07-31T05:46:05.511Z,264283.6,_Ss5NYbESu,incremental,anketa,6645cf40bc81b65c5faccf1d,participant,hcpib7dulz9f5vdd,,,,,Što Miloš je opljačkao banku da kupi?,Miloš je opljačkao banku da kupi kuću.,ai,,,20,,,
,Answer indication,canvas.Screen,2_10_4,,,,,,skipped,,264204.8000000119,,,264192.8000000119,264205.7000000179,2024-07-31T05:46:05.520Z,264283.6,_Ss5NYbESu,incremental,anketa,6645cf40bc81b65c5faccf1d,participant,hcpib7dulz9f5vdd,,,,,Što Miloš je opljačkao banku da kupi?,Miloš je opljačkao banku da kupi kuću.,ai,,,20,,,
,inter-stimulus,canvas.Screen,2_10_5,,,,,,response,828.7000000119442,264206.5,264276.218,264283.6,265112.3000000119,265359.2000000179,2024-07-31T05:46:06.674Z,265472.5,_Ss5NYbESu,incremental,anketa,6645cf40bc81b65c5faccf1d,participant,hcpib7dulz9f5vdd,,,mousedown,,Što Miloš je opljačkao banku da kupi?,Miloš je opljačkao banku da kupi kuću.,ai,,,20,,,
,Sequence,flow.Sequence,2_10,,,,,,completion,11163.000000011933,253860,253935.318,253949.3,265112.3000000119,265360.7000000179,2024-07-31T05:46:06.675Z,265472.5,_Ss5NYbESu,incremental,anketa,6645cf40bc81b65c5faccf1d,participant,hcpib7dulz9f5vdd,,,,,Što Miloš je opljačkao banku da kupi?,Miloš je opljačkao banku da kupi kuću.,ai,,,20,,,
,context,canvas.Screen,2_11_0_0,,,,,,response,1056.9000000059605,265362.60000002384,265466.886,265472.5,266529.40000000596,266776.5,2024-07-31T05:46:08.091Z,266869.4,_Ss5NYbESu,incremental,anketa,6645cf40bc81b65c5faccf1d,participant,hcpib7dulz9f5vdd,,,click,,Čega je riješio taj misterij?,Riješio je taj misterij nestanka psa.,di,,,32,,,
,Timer frame,html.Frame,2_11_0,,,,,,,1305.2000000178814,265361.8000000119,265466.886,265472.5,266777.7000000179,266778.3000000119,2024-07-31T05:46:08.093Z,266869.4,_Ss5NYbESu,incremental,anketa,6645cf40bc81b65c5faccf1d,participant,hcpib7dulz9f5vdd,,,,,Čega je riješio taj misterij?,Riješio je taj misterij nestanka psa.,di,,,32,,,
,stimulus,canvas.Screen,2_11_1_0,,,,,,response,2380.500000005937,266779.90000000596,266853.192,266869.4,269249.90000000596,269491.10000002384,2024-07-31T05:46:10.805Z,269613,_Ss5NYbESu,incremental,anketa,6645cf40bc81b65c5faccf1d,participant,hcpib7dulz9f5vdd,,1,click @1,,Čega je riješio taj misterij?,Riješio je taj misterij nestanka psa.,di,,,32,,,
,Timer frame,html.Frame,2_11_1,,,,,,,2622.5999999999767,266779,266853.192,266869.4,269492,269492.7000000179,2024-07-31T05:46:10.807Z,269613,_Ss5NYbESu,incremental,anketa,6645cf40bc81b65c5faccf1d,participant,hcpib7dulz9f5vdd,,,,,Čega je riješio taj misterij?,Riješio je taj misterij nestanka psa.,di,,,32,,,
,Spremanje,canvas.Screen,2_11_2,,,,,,skipped,,269493.5,,,269492,269494.10000002384,2024-07-31T05:46:10.808Z,269613,_Ss5NYbESu,incremental,anketa,6645cf40bc81b65c5faccf1d,participant,hcpib7dulz9f5vdd,,,,,Čega je riješio taj misterij?,Riješio je taj misterij nestanka psa.,di,,,32,,,
,Question form,html.Form,2_11_3,,,,,,skipped,,269494.8000000119,,,269492,269495.5,2024-07-31T05:46:10.810Z,269613,_Ss5NYbESu,incremental,anketa,6645cf40bc81b65c5faccf1d,participant,hcpib7dulz9f5vdd,,,,,Čega je riješio taj misterij?,Riješio je taj misterij nestanka psa.,di,,,32,,,
,Answer indication,canvas.Screen,2_11_4,,,,,,skipped,,269501.90000000596,,,269492,269502.8000000119,2024-07-31T05:46:10.817Z,269613,_Ss5NYbESu,incremental,anketa,6645cf40bc81b65c5faccf1d,participant,hcpib7dulz9f5vdd,,,,,Čega je riješio taj misterij?,Riješio je taj misterij nestanka psa.,di,,,32,,,
,inter-stimulus,canvas.Screen,2_11_5,,,,,,response,773,269503.7000000179,269605.028,269613,270386,270648.60000002384,2024-07-31T05:46:11.963Z,270743.7,_Ss5NYbESu,incremental,anketa,6645cf40bc81b65c5faccf1d,participant,hcpib7dulz9f5vdd,,,mousedown,,Čega je riješio taj misterij?,Riješio je taj misterij nestanka psa.,di,,,32,,,
,Sequence,flow.Sequence,2_11,,,,,,completion,4913.5,265361.5,265466.886,265472.5,270386,270650.3000000119,2024-07-31T05:46:11.965Z,270743.7,_Ss5NYbESu,incremental,anketa,6645cf40bc81b65c5faccf1d,participant,hcpib7dulz9f5vdd,,,,,Čega je riješio taj misterij?,Riješio je taj misterij nestanka psa.,di,,,32,,,
,context,canvas.Screen,2_12_0_0,,,,,,response,3216.5000000178698,270651.8000000119,270729.622,270743.7,273960.2000000179,274215.40000000596,2024-07-31T05:46:15.530Z,274327.1,_Ss5NYbESu,incremental,anketa,6645cf40bc81b65c5faccf1d,participant,hcpib7dulz9f5vdd,,,click,,"To su oni siromasi, koje je htio nahraniti i moliti se bogu..",Hoće nahraniti siromahe i moliti se bogu.,csi,42,0,6,,,
,Timer frame,html.Frame,2_12_0,,,,,,,3472.200000005949,270651.2000000179,270729.622,270743.7,274215.90000000596,274216.3000000119,2024-07-31T05:46:15.531Z,274327.1,_Ss5NYbESu,incremental,anketa,6645cf40bc81b65c5faccf1d,participant,hcpib7dulz9f5vdd,,,,,"To su oni siromasi, koje je htio nahraniti i moliti se bogu..",Hoće nahraniti siromahe i moliti se bogu.,csi,42,0,6,,,
,stimulus,canvas.Screen,2_12_1_0,,,,,,response,6939.000000023865,274217.60000002384,274311.252,274327.1,281266.10000002384,281416.5,2024-07-31T05:46:22.731Z,281511.318,_Ss5NYbESu,incremental,anketa,6645cf40bc81b65c5faccf1d,participant,hcpib7dulz9f5vdd,,7,click @7,,"To su oni siromasi, koje je htio nahraniti i moliti se bogu..",Hoće nahraniti siromahe i moliti se bogu.,csi,42,0,6,,,
,Timer frame,html.Frame,2_12_1,,,,,,,7090.900000000023,274216.60000002384,274311.252,274327.1,281418,281418.90000000596,2024-07-31T05:46:22.733Z,281511.318,_Ss5NYbESu,incremental,anketa,6645cf40bc81b65c5faccf1d,participant,hcpib7dulz9f5vdd,,,,,"To su oni siromasi, koje je htio nahraniti i moliti se bogu..",Hoće nahraniti siromahe i moliti se bogu.,csi,42,0,6,,,
,Spremanje,canvas.Screen,2_12_2,,,,,,skipped,,281419.60000002384,,,281418,281420.2000000179,2024-07-31T05:46:22.735Z,281511.318,_Ss5NYbESu,incremental,anketa,6645cf40bc81b65c5faccf1d,participant,hcpib7dulz9f5vdd,,,,,"To su oni siromasi, koje je htio nahraniti i moliti se bogu..",Hoće nahraniti siromahe i moliti se bogu.,csi,42,0,6,,,
,Question form,html.Form,2_12_3,,,,,,skipped,,281420.90000000596,,,281418,281421.8000000119,2024-07-31T05:46:22.736Z,281511.318,_Ss5NYbESu,incremental,anketa,6645cf40bc81b65c5faccf1d,participant,hcpib7dulz9f5vdd,,,,,"To su oni siromasi, koje je htio nahraniti i moliti se bogu..",Hoće nahraniti siromahe i moliti se bogu.,csi,42,0,6,,,
,Answer indication,canvas.Screen,2_12_4,,,,,,skipped,,281429.90000000596,,,281418,281430.8000000119,2024-07-31T05:46:22.745Z,281511.318,_Ss5NYbESu,incremental,anketa,6645cf40bc81b65c5faccf1d,participant,hcpib7dulz9f5vdd,,,,,"To su oni siromasi, koje je htio nahraniti i moliti se bogu..",Hoće nahraniti siromahe i moliti se bogu.,csi,42,0,6,,,
,inter-stimulus,canvas.Screen,2_12_5,,,,,,response,963.382000017853,281431.60000002384,281511.318,281511.318,282474.7000000179,282737.7000000179,2024-07-31T05:46:24.052Z,282849.1,_Ss5NYbESu,incremental,anketa,6645cf40bc81b65c5faccf1d,participant,hcpib7dulz9f5vdd,,,mousedown,,"To su oni siromasi, koje je htio nahraniti i moliti se bogu..",Hoće nahraniti siromahe i moliti se bogu.,csi,42,0,6,,,
,Sequence,flow.Sequence,2_12,,,,,,completion,11731.00000001787,270651,270729.622,270743.7,282474.7000000179,282739.2000000179,2024-07-31T05:46:24.054Z,282849.1,_Ss5NYbESu,incremental,anketa,6645cf40bc81b65c5faccf1d,participant,hcpib7dulz9f5vdd,,,,,"To su oni siromasi, koje je htio nahraniti i moliti se bogu..",Hoće nahraniti siromahe i moliti se bogu.,csi,42,0,6,,,
,context,canvas.Screen,2_13_0_0,,,,,,response,6245.200000011944,282740.90000000596,282844.598,282849.1,289094.3000000119,289329.90000000596,2024-07-31T05:46:30.644Z,289425.4,_Ss5NYbESu,incremental,anketa,6645cf40bc81b65c5faccf1d,participant,hcpib7dulz9f5vdd,,,click,,Kakva čovjeka svatko tko poznaje može potvrditi njegov integritet??,Svatko tko poznaje onog čovjeka može potvrditi njegov integritet..,si,33,31,12,,,2305
,Timer frame,html.Frame,2_13_0,,,,,,,6481.700000011944,282740.2000000179,282844.598,282849.1,289330.8000000119,289331.60000002384,2024-07-31T05:46:30.646Z,289425.4,_Ss5NYbESu,incremental,anketa,6645cf40bc81b65c5faccf1d,participant,hcpib7dulz9f5vdd,,,,,Kakva čovjeka svatko tko poznaje može potvrditi njegov integritet??,Svatko tko poznaje onog čovjeka može potvrditi njegov integritet..,si,33,31,12,,,2305
,stimulus,canvas.Screen,2_13_1_0,,,,,,response,1989.4000000118976,289333.2000000179,289418.018,289425.4,291414.8000000119,291562.5,2024-07-31T05:46:32.877Z,291670.2,_Ss5NYbESu,incremental,anketa,6645cf40bc81b65c5faccf1d,participant,hcpib7dulz9f5vdd,,1,click @1,,Kakva čovjeka svatko tko poznaje može potvrditi njegov integritet??,Svatko tko poznaje onog čovjeka može potvrditi njegov integritet..,si,33,31,12,,,2305
,Timer frame,html.Frame,2_13_1,,,,,,,2137.7000000238186,289332.40000000596,289418.018,289425.4,291563.10000002384,291563.40000000596,2024-07-31T05:46:32.878Z,291670.2,_Ss5NYbESu,incremental,anketa,6645cf40bc81b65c5faccf1d,participant,hcpib7dulz9f5vdd,,,,,Kakva čovjeka svatko tko poznaje može potvrditi njegov integritet??,Svatko tko poznaje onog čovjeka može potvrditi njegov integritet..,si,33,31,12,,,2305
,Spremanje,canvas.Screen,2_13_2,,,,,,skipped,,291563.7000000179,,,291563.10000002384,291563.8000000119,2024-07-31T05:46:32.878Z,291670.2,_Ss5NYbESu,incremental,anketa,6645cf40bc81b65c5faccf1d,participant,hcpib7dulz9f5vdd,,,,,Kakva čovjeka svatko tko poznaje može potvrditi njegov integritet??,Svatko tko poznaje onog čovjeka može potvrditi njegov integritet..,si,33,31,12,,,2305
,Question form,html.Form,2_13_3,,,,,,skipped,,291564.10000002384,,,291563.10000002384,291564.3000000119,2024-07-31T05:46:32.879Z,291670.2,_Ss5NYbESu,incremental,anketa,6645cf40bc81b65c5faccf1d,participant,hcpib7dulz9f5vdd,,,,,Kakva čovjeka svatko tko poznaje može potvrditi njegov integritet??,Svatko tko poznaje onog čovjeka može potvrditi njegov integritet..,si,33,31,12,,,2305
,Answer indication,canvas.Screen,2_13_4,,,,,,skipped,,291566.90000000596,,,291563.10000002384,291567.2000000179,2024-07-31T05:46:32.881Z,291670.2,_Ss5NYbESu,incremental,anketa,6645cf40bc81b65c5faccf1d,participant,hcpib7dulz9f5vdd,,,,,Kakva čovjeka svatko tko poznaje može potvrditi njegov integritet??,Svatko tko poznaje onog čovjeka može potvrditi njegov integritet..,si,33,31,12,,,2305
,inter-stimulus,canvas.Screen,2_13_5,,,,,,response,753.5000000178698,291567.5,291662.128,291670.2,292423.7000000179,292664.10000002384,2024-07-31T05:46:33.978Z,292759.3,_Ss5NYbESu,incremental,anketa,6645cf40bc81b65c5faccf1d,participant,hcpib7dulz9f5vdd,,,mousedown,,Kakva čovjeka svatko tko poznaje može potvrditi njegov integritet??,Svatko tko poznaje onog čovjeka može potvrditi njegov integritet..,si,33,31,12,,,2305
,Sequence,flow.Sequence,2_13,,,,,,completion,9574.600000017905,282739.90000000596,282844.598,282849.1,292423.7000000179,292665.8000000119,2024-07-31T05:46:33.980Z,292759.3,_Ss5NYbESu,incremental,anketa,6645cf40bc81b65c5faccf1d,participant,hcpib7dulz9f5vdd,,,,,Kakva čovjeka svatko tko poznaje može potvrditi njegov integritet??,Svatko tko poznaje onog čovjeka može potvrditi njegov integritet..,si,33,31,12,,,2305
,context,canvas.Screen,2_14_0_0,,,,,,response,2932.2000000000116,292667.60000002384,292753.49,292759.3,295691.5,295939,2024-07-31T05:46:37.253Z,296051.8,_Ss5NYbESu,incremental,anketa,6645cf40bc81b65c5faccf1d,participant,hcpib7dulz9f5vdd,,,click,,Što želiš da pronaći nije bilo teško?,Pronaći apoteku nije bilo teško.,si,,,14,,,2305
,Timer frame,html.Frame,2_14_0,,,,,,,3180.400000017893,292666.90000000596,292753.49,292759.3,295939.7000000179,295940.3000000119,2024-07-31T05:46:37.255Z,296051.8,_Ss5NYbESu,incremental,anketa,6645cf40bc81b65c5faccf1d,participant,hcpib7dulz9f5vdd,,,,,Što želiš da pronaći nije bilo teško?,Pronaći apoteku nije bilo teško.,si,,,14,,,2305
,stimulus,canvas.Screen,2_14_1_0,,,,,,response,1978.7000000000116,295941.8000000119,296010.986,296051.8,298030.5,298209.90000000596,2024-07-31T05:46:39.524Z,298313.2,_Ss5NYbESu,incremental,anketa,6645cf40bc81b65c5faccf1d,participant,hcpib7dulz9f5vdd,,1,click @1,,Što želiš da pronaći nije bilo teško?,Pronaći apoteku nije bilo teško.,si,,,14,,,2305
,Timer frame,html.Frame,2_14_1,,,,,,,2159.2000000000116,295940.90000000596,296010.986,296051.8,298211,298211.90000000596,2024-07-31T05:46:39.526Z,298313.2,_Ss5NYbESu,incremental,anketa,6645cf40bc81b65c5faccf1d,participant,hcpib7dulz9f5vdd,,,,,Što želiš da pronaći nije bilo teško?,Pronaći apoteku nije bilo teško.,si,,,14,,,2305
,Spremanje,canvas.Screen,2_14_2,,,,,,skipped,,298212.90000000596,,,298211,298213.7000000179,2024-07-31T05:46:39.528Z,298313.2,_Ss5NYbESu,incremental,anketa,6645cf40bc81b65c5faccf1d,participant,hcpib7dulz9f5vdd,,,,,Što želiš da pronaći nije bilo teško?,Pronaći apoteku nije bilo teško.,si,,,14,,,2305
,Question form,html.Form,2_14_3,,,,,,skipped,,298214.40000000596,,,298211,298215,2024-07-31T05:46:39.529Z,298313.2,_Ss5NYbESu,incremental,anketa,6645cf40bc81b65c5faccf1d,participant,hcpib7dulz9f5vdd,,,,,Što želiš da pronaći nije bilo teško?,Pronaći apoteku nije bilo teško.,si,,,14,,,2305
,Answer indication,canvas.Screen,2_14_4,,,,,,skipped,,298223.5,,,298211,298224.40000000596,2024-07-31T05:46:39.539Z,298313.2,_Ss5NYbESu,incremental,anketa,6645cf40bc81b65c5faccf1d,participant,hcpib7dulz9f5vdd,,,,,Što želiš da pronaći nije bilo teško?,Pronaći apoteku nije bilo teško.,si,,,14,,,2305
,inter-stimulus,canvas.Screen,2_14_5,,,,,,response,1020.6000000119093,298225.2000000179,298297.452,298313.2,299333.8000000119,299589.3000000119,2024-07-31T05:46:40.904Z,299693.5,_Ss5NYbESu,incremental,anketa,6645cf40bc81b65c5faccf1d,participant,hcpib7dulz9f5vdd,,,mousedown,,Što želiš da pronaći nije bilo teško?,Pronaći apoteku nije bilo teško.,si,,,14,,,2305
,Sequence,flow.Sequence,2_14,,,,,,completion,6574.500000011933,292666.60000002384,292753.49,292759.3,299333.8000000119,299591.10000002384,2024-07-31T05:46:40.905Z,299693.5,_Ss5NYbESu,incremental,anketa,6645cf40bc81b65c5faccf1d,participant,hcpib7dulz9f5vdd,,,,,Što želiš da pronaći nije bilo teško?,Pronaći apoteku nije bilo teško.,si,,,14,,,2305
,context,canvas.Screen,2_15_0_0,,,,,,response,1520.1000000238419,299592.60000002384,299679.812,299693.5,301213.60000002384,301460.3000000119,2024-07-31T05:46:42.775Z,301548.186,_Ss5NYbESu,incremental,anketa,6645cf40bc81b65c5faccf1d,participant,hcpib7dulz9f5vdd,,,click,,U sutra ne samo svatko jedan može gledati.,Ne može svatko gledati u sutra.,nf,,,45,,,
,Timer frame,html.Frame,2_15_0,,,,,,,1767.9000000059605,299592,299679.812,299693.5,301461.40000000596,301462,2024-07-31T05:46:42.776Z,301548.186,_Ss5NYbESu,incremental,anketa,6645cf40bc81b65c5faccf1d,participant,hcpib7dulz9f5vdd,,,,,U sutra ne samo svatko jedan može gledati.,Ne može svatko gledati u sutra.,nf,,,45,,,
,stimulus,canvas.Screen,2_15_1_0,,,,,,response,2299.814000000013,301463.8000000119,301548.186,301548.186,303848,304019.5,2024-07-31T05:46:45.334Z,,_Ss5NYbESu,incremental,anketa,6645cf40bc81b65c5faccf1d,participant,hcpib7dulz9f5vdd,,1,click @1,,U sutra ne samo svatko jedan može gledati.,Ne može svatko gledati u sutra.,nf,,,45,,,
,Timer frame,html.Frame,2_15_1,,,,,,,2472.114000011934,301462.90000000596,301548.186,301548.186,304020.3000000119,304021,2024-07-31T05:46:45.335Z,,_Ss5NYbESu,incremental,anketa,6645cf40bc81b65c5faccf1d,participant,hcpib7dulz9f5vdd,,,,,U sutra ne samo svatko jedan može gledati.,Ne može svatko gledati u sutra.,nf,,,45,,,
,Spremanje,canvas.Screen,2_15_2,,,,,,skipped,,304021.8000000119,,,304020.3000000119,304022.40000000596,2024-07-31T05:46:45.337Z,,_Ss5NYbESu,incremental,anketa,6645cf40bc81b65c5faccf1d,participant,hcpib7dulz9f5vdd,,,,,U sutra ne samo svatko jedan može gledati.,Ne može svatko gledati u sutra.,nf,,,45,,,
,Question form,html.Form,2_15_3,,,,,,skipped,,304023.10000002384,,,304020.3000000119,304023.7000000179,2024-07-31T05:46:45.338Z,,_Ss5NYbESu,incremental,anketa,6645cf40bc81b65c5faccf1d,participant,hcpib7dulz9f5vdd,,,,,U sutra ne samo svatko jedan može gledati.,Ne može svatko gledati u sutra.,nf,,,45,,,
,Answer indication,canvas.Screen,2_15_4,,,,,,skipped,,304030.5,,,304020.3000000119,304031.40000000596,2024-07-31T05:46:45.346Z,,_Ss5NYbESu,incremental,anketa,6645cf40bc81b65c5faccf1d,participant,hcpib7dulz9f5vdd,,,,,U sutra ne samo svatko jedan može gledati.,Ne može svatko gledati u sutra.,nf,,,45,,,
,inter-stimulus,canvas.Screen,2_15_5,,,,,,response,806.5999999999767,304032.2000000179,304158.492,304166.4,304973,305222.40000000596,2024-07-31T05:46:46.537Z,305313.8,_Ss5NYbESu,incremental,anketa,6645cf40bc81b65c5faccf1d,participant,hcpib7dulz9f5vdd,,,mousedown,,U sutra ne samo svatko jedan može gledati.,Ne može svatko gledati u sutra.,nf,,,45,,,
,Sequence,flow.Sequence,2_15,,,,,,completion,5279.5,299591.60000002384,299679.812,299693.5,304973,305224.5,2024-07-31T05:46:46.539Z,305313.8,_Ss5NYbESu,incremental,anketa,6645cf40bc81b65c5faccf1d,participant,hcpib7dulz9f5vdd,,,,,U sutra ne samo svatko jedan može gledati.,Ne može svatko gledati u sutra.,nf,,,45,,,
,context,canvas.Screen,2_16_0_0,,,,,,response,2987.5000000119326,305226.5,305299.688,305313.8,308301.3000000119,308583.7000000179,2024-07-31T05:46:49.898Z,308722.5,_Ss5NYbESu,incremental,anketa,6645cf40bc81b65c5faccf1d,participant,hcpib7dulz9f5vdd,,,click,,Kakva je kraj mene biciklom prošla djevojka?,Kraj mene je biciklom prošla vrlo lijepa djevojka.,ai,,,27,,,
,Timer frame,html.Frame,2_16_0,,,,,,,3271.3000000238535,305225.7000000179,305299.688,305313.8,308585.10000002384,308587.10000002384,2024-07-31T05:46:49.901Z,308722.5,_Ss5NYbESu,incremental,anketa,6645cf40bc81b65c5faccf1d,participant,hcpib7dulz9f5vdd,,,,,Kakva je kraj mene biciklom prošla djevojka?,Kraj mene je biciklom prošla vrlo lijepa djevojka.,ai,,,27,,,
,stimulus,canvas.Screen,2_16_1_0,,,,,,response,7705.600000023842,308588.5,308715.084,308722.5,316428.10000002384,316672,2024-07-31T05:46:57.986Z,316770.5,_Ss5NYbESu,incremental,anketa,6645cf40bc81b65c5faccf1d,participant,hcpib7dulz9f5vdd,,5,click @5,,Kakva je kraj mene biciklom prošla djevojka?,Kraj mene je biciklom prošla vrlo lijepa djevojka.,ai,,,27,,,
,Timer frame,html.Frame,2_16_1,,,,,,,7950.5,308587.7000000179,308715.084,308722.5,316673,316673.90000000596,2024-07-31T05:46:57.988Z,316770.5,_Ss5NYbESu,incremental,anketa,6645cf40bc81b65c5faccf1d,participant,hcpib7dulz9f5vdd,,,,,Kakva je kraj mene biciklom prošla djevojka?,Kraj mene je biciklom prošla vrlo lijepa djevojka.,ai,,,27,,,
,Spremanje,canvas.Screen,2_16_2,,,,,,skipped,,316674.7000000179,,,316673,316675.3000000119,2024-07-31T05:46:57.990Z,316770.5,_Ss5NYbESu,incremental,anketa,6645cf40bc81b65c5faccf1d,participant,hcpib7dulz9f5vdd,,,,,Kakva je kraj mene biciklom prošla djevojka?,Kraj mene je biciklom prošla vrlo lijepa djevojka.,ai,,,27,,,
,Question form,html.Form,2_16_3,,,,,,skipped,,316676,,,316673,316676.60000002384,2024-07-31T05:46:57.991Z,316770.5,_Ss5NYbESu,incremental,anketa,6645cf40bc81b65c5faccf1d,participant,hcpib7dulz9f5vdd,,,,,Kakva je kraj mene biciklom prošla djevojka?,Kraj mene je biciklom prošla vrlo lijepa djevojka.,ai,,,27,,,
,Answer indication,canvas.Screen,2_16_4,,,,,,skipped,,316684.60000002384,,,316673,316685.5,2024-07-31T05:46:58.000Z,316770.5,_Ss5NYbESu,incremental,anketa,6645cf40bc81b65c5faccf1d,participant,hcpib7dulz9f5vdd,,,,,Kakva je kraj mene biciklom prošla djevojka?,Kraj mene je biciklom prošla vrlo lijepa djevojka.,ai,,,27,,,
,inter-stimulus,canvas.Screen,2_16_5,,,,,,response,865.9000000059605,316686.2000000179,316754.652,316770.5,317636.40000000596,317897.2000000179,2024-07-31T05:46:59.212Z,317992.7,_Ss5NYbESu,incremental,anketa,6645cf40bc81b65c5faccf1d,participant,hcpib7dulz9f5vdd,,,mousedown,,Kakva je kraj mene biciklom prošla djevojka?,Kraj mene je biciklom prošla vrlo lijepa djevojka.,ai,,,27,,,
,Sequence,flow.Sequence,2_16,,,,,,completion,12322.600000005972,305225.2000000179,305299.688,305313.8,317636.40000000596,317898.8000000119,2024-07-31T05:46:59.213Z,317992.7,_Ss5NYbESu,incremental,anketa,6645cf40bc81b65c5faccf1d,participant,hcpib7dulz9f5vdd,,,,,Kakva je kraj mene biciklom prošla djevojka?,Kraj mene je biciklom prošla vrlo lijepa djevojka.,ai,,,27,,,
,context,canvas.Screen,2_17_0_0,,,,,,response,2092.7999999999884,317900.2000000179,317987.118,317992.7,320085.5,320338.90000000596,2024-07-31T05:47:01.653Z,320428.6,_Ss5NYbESu,incremental,anketa,6645cf40bc81b65c5faccf1d,participant,hcpib7dulz9f5vdd,,,click,,Čega si gledao prepričavanje?,Gledao si prepričavanje filma.,di,,,31,,,
,Timer frame,html.Frame,2_17_0,,,,,,,2347.5000000178698,317899.60000002384,317987.118,317992.7,320340.2000000179,320341,2024-07-31T05:47:01.655Z,320428.6,_Ss5NYbESu,incremental,anketa,6645cf40bc81b65c5faccf1d,participant,hcpib7dulz9f5vdd,,,,,Čega si gledao prepričavanje?,Gledao si prepričavanje filma.,di,,,31,,,
,stimulus,canvas.Screen,2_17_1_0,,,,,,response,5247.300000005984,320342.7000000179,320412.754,320428.6,325675.90000000596,325879.2000000179,2024-07-31T05:47:07.194Z,326007.4,_Ss5NYbESu,incremental,anketa,6645cf40bc81b65c5faccf1d,participant,hcpib7dulz9f5vdd,,3,click @3,,Čega si gledao prepričavanje?,Gledao si prepričavanje filma.,di,,,31,,,
,Timer frame,html.Frame,2_17_1,,,,,,,5451.400000000023,320341.90000000596,320412.754,320428.6,325880,325880.7000000179,2024-07-31T05:47:07.195Z,326007.4,_Ss5NYbESu,incremental,anketa,6645cf40bc81b65c5faccf1d,participant,hcpib7dulz9f5vdd,,,,,Čega si gledao prepričavanje?,Gledao si prepričavanje filma.,di,,,31,,,
,Spremanje,canvas.Screen,2_17_2,,,,,,skipped,,325881.40000000596,,,325880,325882.10000002384,2024-07-31T05:47:07.196Z,326007.4,_Ss5NYbESu,incremental,anketa,6645cf40bc81b65c5faccf1d,participant,hcpib7dulz9f5vdd,,,,,Čega si gledao prepričavanje?,Gledao si prepričavanje filma.,di,,,31,,,
,Question form,html.Form,2_17_3,,,,,,skipped,,325882.8000000119,,,325880,325883.5,2024-07-31T05:47:07.198Z,326007.4,_Ss5NYbESu,incremental,anketa,6645cf40bc81b65c5faccf1d,participant,hcpib7dulz9f5vdd,,,,,Čega si gledao prepričavanje?,Gledao si prepričavanje filma.,di,,,31,,,
,Answer indication,canvas.Screen,2_17_4,,,,,,skipped,,325889.90000000596,,,325880,325890.8000000119,2024-07-31T05:47:07.205Z,326007.4,_Ss5NYbESu,incremental,anketa,6645cf40bc81b65c5faccf1d,participant,hcpib7dulz9f5vdd,,,,,Čega si gledao prepričavanje?,Gledao si prepričavanje filma.,di,,,31,,,
,inter-stimulus,canvas.Screen,2_17_5,,,,,,response,1167.4000000118976,325891.60000002384,325999.656,326007.4,327174.8000000119,327376.40000000596,2024-07-31T05:47:08.691Z,327471,_Ss5NYbESu,incremental,anketa,6645cf40bc81b65c5faccf1d,participant,hcpib7dulz9f5vdd,,,mousedown,,Čega si gledao prepričavanje?,Gledao si prepričavanje filma.,di,,,31,,,
,Sequence,flow.Sequence,2_17,,,,,,completion,9182.10000001191,317899.3000000119,317987.118,317992.7,327174.8000000119,327378.3000000119,2024-07-31T05:47:08.693Z,327471,_Ss5NYbESu,incremental,anketa,6645cf40bc81b65c5faccf1d,participant,hcpib7dulz9f5vdd,,,,,Čega si gledao prepričavanje?,Gledao si prepričavanje filma.,di,,,31,,,
,context,canvas.Screen,2_18_0_0,,,,,,response,3220.300000011921,327380.10000002384,327457.342,327471,330691.3000000119,330915.2000000179,2024-07-31T05:47:12.229Z,331029.1,_Ss5NYbESu,incremental,anketa,6645cf40bc81b65c5faccf1d,participant,hcpib7dulz9f5vdd,,,click,,Kad je Lena pronašla honorarni posao?,Lena je pronašla honorarni posao ubrzo nakon praznika..,gf,,32,51,,,
,Timer frame,html.Frame,2_18_0,,,,,,,3445.100000023842,327379.3000000119,327457.342,327471,330916.10000002384,330916.8000000119,2024-07-31T05:47:12.231Z,331029.1,_Ss5NYbESu,incremental,anketa,6645cf40bc81b65c5faccf1d,participant,hcpib7dulz9f5vdd,,,,,Kad je Lena pronašla honorarni posao?,Lena je pronašla honorarni posao ubrzo nakon praznika..,gf,,32,51,,,
,stimulus,canvas.Screen,2_18_1_0,,,,,,response,1997.8000000059837,330918.3000000119,331012.728,331029.1,333026.90000000596,333274.5,2024-07-31T05:47:14.589Z,333348.7,_Ss5NYbESu,incremental,anketa,6645cf40bc81b65c5faccf1d,participant,hcpib7dulz9f5vdd,,7,click @7,,Kad je Lena pronašla honorarni posao?,Lena je pronašla honorarni posao ubrzo nakon praznika..,gf,,32,51,,,
,Timer frame,html.Frame,2_18_1,,,,,,,2246.8000000059837,330917.60000002384,331012.728,331029.1,333275.90000000596,333276.3000000119,2024-07-31T05:47:14.591Z,333348.7,_Ss5NYbESu,incremental,anketa,6645cf40bc81b65c5faccf1d,participant,hcpib7dulz9f5vdd,,,,,Kad je Lena pronašla honorarni posao?,Lena je pronašla honorarni posao ubrzo nakon praznika..,gf,,32,51,,,
,Spremanje,canvas.Screen,2_18_2,,,,,,skipped,,333276.5,,,333275.90000000596,333276.7000000179,2024-07-31T05:47:14.591Z,333348.7,_Ss5NYbESu,incremental,anketa,6645cf40bc81b65c5faccf1d,participant,hcpib7dulz9f5vdd,,,,,Kad je Lena pronašla honorarni posao?,Lena je pronašla honorarni posao ubrzo nakon praznika..,gf,,32,51,,,
,Question form,html.Form,2_18_3,,,,,,skipped,,333276.90000000596,,,333275.90000000596,333277.10000002384,2024-07-31T05:47:14.592Z,333348.7,_Ss5NYbESu,incremental,anketa,6645cf40bc81b65c5faccf1d,participant,hcpib7dulz9f5vdd,,,,,Kad je Lena pronašla honorarni posao?,Lena je pronašla honorarni posao ubrzo nakon praznika..,gf,,32,51,,,
,Answer indication,canvas.Screen,2_18_4,,,,,,skipped,,333280.60000002384,,,333275.90000000596,333280.90000000596,2024-07-31T05:47:14.595Z,333348.7,_Ss5NYbESu,incremental,anketa,6645cf40bc81b65c5faccf1d,participant,hcpib7dulz9f5vdd,,,,,Kad je Lena pronašla honorarni posao?,Lena je pronašla honorarni posao ubrzo nakon praznika..,gf,,32,51,,,
,inter-stimulus,canvas.Screen,2_18_5,,,,,,response,825.2999999999884,333281.2000000179,333332.788,333348.7,334174,334450.8000000119,2024-07-31T05:47:15.765Z,334554.4,_Ss5NYbESu,incremental,anketa,6645cf40bc81b65c5faccf1d,participant,hcpib7dulz9f5vdd,,,mousedown,,Kad je Lena pronašla honorarni posao?,Lena je pronašla honorarni posao ubrzo nakon praznika..,gf,,32,51,,,
,Sequence,flow.Sequence,2_18,,,,,,completion,6703,327379,327457.342,327471,334174,334452.40000000596,2024-07-31T05:47:15.767Z,334554.4,_Ss5NYbESu,incremental,anketa,6645cf40bc81b65c5faccf1d,participant,hcpib7dulz9f5vdd,,,,,Kad je Lena pronašla honorarni posao?,Lena je pronašla honorarni posao ubrzo nakon praznika..,gf,,32,51,,,
,context,canvas.Screen,2_19_0_0,,,,,,response,2292.500000005937,334453.8000000119,334548.652,334554.4,336846.90000000596,337095.5,2024-07-31T05:47:18.410Z,337189.9,_Ss5NYbESu,incremental,anketa,6645cf40bc81b65c5faccf1d,participant,hcpib7dulz9f5vdd,,,click,,Tko je ovo bio jasan slučaj da je zapravo pohlepna osoba??,Ovo je bio jasan slučaj da je on zapravo pohlepna osoba..,cnp,41,40,8,,,
,Timer frame,html.Frame,2_19_0,,,,,,,2542.0999999999767,334453.2000000179,334548.652,334554.4,337096.5,337097.2000000179,2024-07-31T05:47:18.412Z,337189.9,_Ss5NYbESu,incremental,anketa,6645cf40bc81b65c5faccf1d,participant,hcpib7dulz9f5vdd,,,,,Tko je ovo bio jasan slučaj da je zapravo pohlepna osoba??,Ovo je bio jasan slučaj da je on zapravo pohlepna osoba..,cnp,41,40,8,,,
,stimulus,canvas.Screen,2_19_1_0,,,,,,response,2126.800000017858,337098.7000000179,337167.422,337189.9,339316.7000000179,339482.3000000119,2024-07-31T05:47:20.797Z,339609.3,_Ss5NYbESu,incremental,anketa,6645cf40bc81b65c5faccf1d,participant,hcpib7dulz9f5vdd,,1,click @1,,Tko je ovo bio jasan slučaj da je zapravo pohlepna osoba??,Ovo je bio jasan slučaj da je on zapravo pohlepna osoba..,cnp,41,40,8,,,
,Timer frame,html.Frame,2_19_1,,,,,,,2293.300000017858,337098.10000002384,337167.422,337189.9,339483.2000000179,339483.8000000119,2024-07-31T05:47:20.798Z,339609.3,_Ss5NYbESu,incremental,anketa,6645cf40bc81b65c5faccf1d,participant,hcpib7dulz9f5vdd,,,,,Tko je ovo bio jasan slučaj da je zapravo pohlepna osoba??,Ovo je bio jasan slučaj da je on zapravo pohlepna osoba..,cnp,41,40,8,,,
,Spremanje,canvas.Screen,2_19_2,,,,,,skipped,,339484.40000000596,,,339483.2000000179,339485.2000000179,2024-07-31T05:47:20.799Z,339609.3,_Ss5NYbESu,incremental,anketa,6645cf40bc81b65c5faccf1d,participant,hcpib7dulz9f5vdd,,,,,Tko je ovo bio jasan slučaj da je zapravo pohlepna osoba??,Ovo je bio jasan slučaj da je on zapravo pohlepna osoba..,cnp,41,40,8,,,
,Question form,html.Form,2_19_3,,,,,,skipped,,339486.10000002384,,,339483.2000000179,339486.8000000119,2024-07-31T05:47:20.801Z,339609.3,_Ss5NYbESu,incremental,anketa,6645cf40bc81b65c5faccf1d,participant,hcpib7dulz9f5vdd,,,,,Tko je ovo bio jasan slučaj da je zapravo pohlepna osoba??,Ovo je bio jasan slučaj da je on zapravo pohlepna osoba..,cnp,41,40,8,,,
,Answer indication,canvas.Screen,2_19_4,,,,,,skipped,,339492.60000002384,,,339483.2000000179,339493.7000000179,2024-07-31T05:47:20.808Z,339609.3,_Ss5NYbESu,incremental,anketa,6645cf40bc81b65c5faccf1d,participant,hcpib7dulz9f5vdd,,,,,Tko je ovo bio jasan slučaj da je zapravo pohlepna osoba??,Ovo je bio jasan slučaj da je on zapravo pohlepna osoba..,cnp,41,40,8,,,
,inter-stimulus,canvas.Screen,2_19_5,,,,,,response,714.6000000059721,339494.5,339593.092,339609.3,340323.90000000596,340557.90000000596,2024-07-31T05:47:21.872Z,340656.9,_Ss5NYbESu,incremental,anketa,6645cf40bc81b65c5faccf1d,participant,hcpib7dulz9f5vdd,,,mousedown,,Tko je ovo bio jasan slučaj da je zapravo pohlepna osoba??,Ovo je bio jasan slučaj da je on zapravo pohlepna osoba..,cnp,41,40,8,,,
,Sequence,flow.Sequence,2_19,,,,,,completion,5769.500000005937,334452.90000000596,334548.652,334554.4,340323.90000000596,340559.3000000119,2024-07-31T05:47:21.874Z,340656.9,_Ss5NYbESu,incremental,anketa,6645cf40bc81b65c5faccf1d,participant,hcpib7dulz9f5vdd,,,,,Tko je ovo bio jasan slučaj da je zapravo pohlepna osoba??,Ovo je bio jasan slučaj da je on zapravo pohlepna osoba..,cnp,41,40,8,,,
,context,canvas.Screen,2_20_0_0,,,,,,response,3603.300000017858,340560.7000000179,340642.592,340656.9,344260.2000000179,344525.90000000596,2024-07-31T05:47:25.840Z,344664.2,_Ss5NYbESu,incremental,anketa,6645cf40bc81b65c5faccf1d,participant,hcpib7dulz9f5vdd,,,click,,Vidimo plažu daleko od koje smo bili.,Vidimo plažu od koje smo bili daleko.,ai,,,24,,,
,Timer frame,html.Frame,2_20_0,,,,,,,3869.9000000118976,340560.2000000179,340642.592,340656.9,344526.8000000119,344527.40000000596,2024-07-31T05:47:25.842Z,344664.2,_Ss5NYbESu,incremental,anketa,6645cf40bc81b65c5faccf1d,participant,hcpib7dulz9f5vdd,,,,,Vidimo plažu daleko od koje smo bili.,Vidimo plažu od koje smo bili daleko.,ai,,,24,,,
,stimulus,canvas.Screen,2_20_1_0,,,,,,response,6885.40000002383,344528.8000000119,344648.026,344664.2,351549.60000002384,351790.8000000119,2024-07-31T05:47:33.105Z,351880.8,_Ss5NYbESu,incremental,anketa,6645cf40bc81b65c5faccf1d,participant,hcpib7dulz9f5vdd,,6,click @6,,Vidimo plažu daleko od koje smo bili.,Vidimo plažu od koje smo bili daleko.,ai,,,24,,,
,Timer frame,html.Frame,2_20_1,,,,,,,7127.700000005949,344528,344648.026,344664.2,351791.90000000596,351792.60000002384,2024-07-31T05:47:33.107Z,351880.8,_Ss5NYbESu,incremental,anketa,6645cf40bc81b65c5faccf1d,participant,hcpib7dulz9f5vdd,,,,,Vidimo plažu daleko od koje smo bili.,Vidimo plažu od koje smo bili daleko.,ai,,,24,,,
,Spremanje,canvas.Screen,2_20_2,,,,,,skipped,,351793.60000002384,,,351791.90000000596,351794.3000000119,2024-07-31T05:47:33.109Z,351880.8,_Ss5NYbESu,incremental,anketa,6645cf40bc81b65c5faccf1d,participant,hcpib7dulz9f5vdd,,,,,Vidimo plažu daleko od koje smo bili.,Vidimo plažu od koje smo bili daleko.,ai,,,24,,,
,Question form,html.Form,2_20_3,,,,,,skipped,,351794.90000000596,,,351791.90000000596,351795.3000000119,2024-07-31T05:47:33.110Z,351880.8,_Ss5NYbESu,incremental,anketa,6645cf40bc81b65c5faccf1d,participant,hcpib7dulz9f5vdd,,,,,Vidimo plažu daleko od koje smo bili.,Vidimo plažu od koje smo bili daleko.,ai,,,24,,,
,Answer indication,canvas.Screen,2_20_4,,,,,,skipped,,351802.8000000119,,,351791.90000000596,351803.8000000119,2024-07-31T05:47:33.118Z,351880.8,_Ss5NYbESu,incremental,anketa,6645cf40bc81b65c5faccf1d,participant,hcpib7dulz9f5vdd,,,,,Vidimo plažu daleko od koje smo bili.,Vidimo plažu od koje smo bili daleko.,ai,,,24,,,
,inter-stimulus,canvas.Screen,2_20_5,,,,,,response,783.0000000119326,351804.60000002384,351864.988,351880.8,352663.8000000119,352940.60000002384,2024-07-31T05:47:34.255Z,353030.754,_Ss5NYbESu,incremental,anketa,6645cf40bc81b65c5faccf1d,participant,hcpib7dulz9f5vdd,,,mousedown,,Vidimo plažu daleko od koje smo bili.,Vidimo plažu od koje smo bili daleko.,ai,,,24,,,
,Sequence,flow.Sequence,2_20,,,,,,completion,12006.900000011898,340559.90000000596,340642.592,340656.9,352663.8000000119,352942.3000000119,2024-07-31T05:47:34.257Z,353030.754,_Ss5NYbESu,incremental,anketa,6645cf40bc81b65c5faccf1d,participant,hcpib7dulz9f5vdd,,,,,Vidimo plažu daleko od koje smo bili.,Vidimo plažu od koje smo bili daleko.,ai,,,24,,,
,context,canvas.Screen,2_21_0_0,,,,,,response,2670.446000017866,352943.7000000179,353030.754,353030.754,355701.2000000179,355927.60000002384,2024-07-31T05:47:37.242Z,355979.7,_Ss5NYbESu,incremental,anketa,6645cf40bc81b65c5faccf1d,participant,hcpib7dulz9f5vdd,,,click,,Tko strah me i zamisliti s kakvim će se ogorčenjem vratiti kući??,Strah me i zamisliti s kakvim će se ogorčenjem moj brat vratiti kući..,ai,24,20,29,,,
,Timer frame,html.Frame,2_21_0,,,,,,,2897.2459999999846,352943.10000002384,353030.754,353030.754,355928,355928.40000000596,2024-07-31T05:47:37.243Z,355979.7,_Ss5NYbESu,incremental,anketa,6645cf40bc81b65c5faccf1d,participant,hcpib7dulz9f5vdd,,,,,Tko strah me i zamisliti s kakvim će se ogorčenjem vratiti kući??,Strah me i zamisliti s kakvim će se ogorčenjem moj brat vratiti kući..,ai,24,20,29,,,
,stimulus,canvas.Screen,2_21_1_0,,,,,,response,1775.1000000119093,355928.7000000179,355971.924,355979.7,357754.8000000119,357995.8000000119,2024-07-31T05:47:39.310Z,358124.8,_Ss5NYbESu,incremental,anketa,6645cf40bc81b65c5faccf1d,participant,hcpib7dulz9f5vdd,,1,click @1,,Tko strah me i zamisliti s kakvim će se ogorčenjem vratiti kući??,Strah me i zamisliti s kakvim će se ogorčenjem moj brat vratiti kući..,ai,24,20,29,,,
,Timer frame,html.Frame,2_21_1,,,,,,,2016.7000000059488,355928.5,355971.924,355979.7,357996.40000000596,357997,2024-07-31T05:47:39.311Z,358124.8,_Ss5NYbESu,incremental,anketa,6645cf40bc81b65c5faccf1d,participant,hcpib7dulz9f5vdd,,,,,Tko strah me i zamisliti s kakvim će se ogorčenjem vratiti kući??,Strah me i zamisliti s kakvim će se ogorčenjem moj brat vratiti kući..,ai,24,20,29,,,
,Spremanje,canvas.Screen,2_21_2,,,,,,skipped,,357997.60000002384,,,357996.40000000596,357998.10000002384,2024-07-31T05:47:39.312Z,358124.8,_Ss5NYbESu,incremental,anketa,6645cf40bc81b65c5faccf1d,participant,hcpib7dulz9f5vdd,,,,,Tko strah me i zamisliti s kakvim će se ogorčenjem vratiti kući??,Strah me i zamisliti s kakvim će se ogorčenjem moj brat vratiti kući..,ai,24,20,29,,,
,Question form,html.Form,2_21_3,,,,,,skipped,,357998.8000000119,,,357996.40000000596,357999.5,2024-07-31T05:47:39.314Z,358124.8,_Ss5NYbESu,incremental,anketa,6645cf40bc81b65c5faccf1d,participant,hcpib7dulz9f5vdd,,,,,Tko strah me i zamisliti s kakvim će se ogorčenjem vratiti kući??,Strah me i zamisliti s kakvim će se ogorčenjem moj brat vratiti kući..,ai,24,20,29,,,
,Answer indication,canvas.Screen,2_21_4,,,,,,skipped,,358005.90000000596,,,357996.40000000596,358006.8000000119,2024-07-31T05:47:39.321Z,358124.8,_Ss5NYbESu,incremental,anketa,6645cf40bc81b65c5faccf1d,participant,hcpib7dulz9f5vdd,,,,,Tko strah me i zamisliti s kakvim će se ogorčenjem vratiti kući??,Strah me i zamisliti s kakvim će se ogorčenjem moj brat vratiti kući..,ai,24,20,29,,,
,inter-stimulus,canvas.Screen,2_21_5,,,,,,response,701.900000017893,358007.7000000179,358117.32,358124.8,358826.7000000179,359036.5,2024-07-31T05:47:40.351Z,359130.7,_Ss5NYbESu,incremental,anketa,6645cf40bc81b65c5faccf1d,participant,hcpib7dulz9f5vdd,,,mousedown,,Tko strah me i zamisliti s kakvim će se ogorčenjem vratiti kući??,Strah me i zamisliti s kakvim će se ogorčenjem moj brat vratiti kući..,ai,24,20,29,,,
,Sequence,flow.Sequence,2_21,,,,,,completion,5795.946000017866,352942.90000000596,353030.754,353030.754,358826.7000000179,359038.3000000119,2024-07-31T05:47:40.353Z,359130.7,_Ss5NYbESu,incremental,anketa,6645cf40bc81b65c5faccf1d,participant,hcpib7dulz9f5vdd,,,,,Tko strah me i zamisliti s kakvim će se ogorčenjem vratiti kući??,Strah me i zamisliti s kakvim će se ogorčenjem moj brat vratiti kući..,ai,24,20,29,,,
,context,canvas.Screen,2_22_0_0,,,,,,response,1919.6000000119093,359040,359124.76,359130.7,361050.3000000119,361271,2024-07-31T05:47:42.585Z,361392.2,_Ss5NYbESu,incremental,anketa,6645cf40bc81b65c5faccf1d,participant,hcpib7dulz9f5vdd,,,click,,Nešto se mu otac za punoljetnost poklonio.,Otac mu je za punoljetnost poklonio crveni Ferrari.,nf,,,42,,,
,Timer frame,html.Frame,2_22_0,,,,,,,2141.2999999999884,359039.3000000119,359124.76,359130.7,361272,361273,2024-07-31T05:47:42.587Z,361392.2,_Ss5NYbESu,incremental,anketa,6645cf40bc81b65c5faccf1d,participant,hcpib7dulz9f5vdd,,,,,Nešto se mu otac za punoljetnost poklonio.,Otac mu je za punoljetnost poklonio crveni Ferrari.,nf,,,42,,,
,stimulus,canvas.Screen,2_22_1_0,,,,,,response,2043.9000000238302,361274.60000002384,361375.928,361392.2,363436.10000002384,363628.90000000596,2024-07-31T05:47:44.943Z,363728.924,_Ss5NYbESu,incremental,anketa,6645cf40bc81b65c5faccf1d,participant,hcpib7dulz9f5vdd,,1,click @1,,Nešto se mu otac za punoljetnost poklonio.,Otac mu je za punoljetnost poklonio crveni Ferrari.,nf,,,42,,,
,Timer frame,html.Frame,2_22_1,,,,,,,2238.1000000119093,361273.7000000179,361375.928,361392.2,363630.3000000119,363631.3000000119,2024-07-31T05:47:44.946Z,363728.924,_Ss5NYbESu,incremental,anketa,6645cf40bc81b65c5faccf1d,participant,hcpib7dulz9f5vdd,,,,,Nešto se mu otac za punoljetnost poklonio.,Otac mu je za punoljetnost poklonio crveni Ferrari.,nf,,,42,,,
,Spremanje,canvas.Screen,2_22_2,,,,,,skipped,,363632.10000002384,,,363630.3000000119,363632.7000000179,2024-07-31T05:47:44.947Z,363728.924,_Ss5NYbESu,incremental,anketa,6645cf40bc81b65c5faccf1d,participant,hcpib7dulz9f5vdd,,,,,Nešto se mu otac za punoljetnost poklonio.,Otac mu je za punoljetnost poklonio crveni Ferrari.,nf,,,42,,,
,Question form,html.Form,2_22_3,,,,,,skipped,,363633.60000002384,,,363630.3000000119,363634.2000000179,2024-07-31T05:47:44.949Z,363728.924,_Ss5NYbESu,incremental,anketa,6645cf40bc81b65c5faccf1d,participant,hcpib7dulz9f5vdd,,,,,Nešto se mu otac za punoljetnost poklonio.,Otac mu je za punoljetnost poklonio crveni Ferrari.,nf,,,42,,,
,Answer indication,canvas.Screen,2_22_4,,,,,,skipped,,363642.5,,,363630.3000000119,363643.3000000119,2024-07-31T05:47:44.958Z,363728.924,_Ss5NYbESu,incremental,anketa,6645cf40bc81b65c5faccf1d,participant,hcpib7dulz9f5vdd,,,,,Nešto se mu otac za punoljetnost poklonio.,Otac mu je za punoljetnost poklonio crveni Ferrari.,nf,,,42,,,
,inter-stimulus,canvas.Screen,2_22_5,,,,,,response,836.8760000119219,363643.7000000179,363728.924,363728.924,364565.8000000119,364782.5,2024-07-31T05:47:46.097Z,364892.5,_Ss5NYbESu,incremental,anketa,6645cf40bc81b65c5faccf1d,participant,hcpib7dulz9f5vdd,,,mousedown,,Nešto se mu otac za punoljetnost poklonio.,Otac mu je za punoljetnost poklonio crveni Ferrari.,nf,,,42,,,
,Sequence,flow.Sequence,2_22,,,,,,completion,5435.100000011909,359039.10000002384,359124.76,359130.7,364565.8000000119,364784,2024-07-31T05:47:46.098Z,364892.5,_Ss5NYbESu,incremental,anketa,6645cf40bc81b65c5faccf1d,participant,hcpib7dulz9f5vdd,,,,,Nešto se mu otac za punoljetnost poklonio.,Otac mu je za punoljetnost poklonio crveni Ferrari.,nf,,,42,,,
,context,canvas.Screen,2_23_0_0,,,,,,response,1190.6000000238419,364785.60000002384,364878.878,364892.5,366083.10000002384,366320.90000000596,2024-07-31T05:47:47.635Z,366413.9,_Ss5NYbESu,incremental,anketa,6645cf40bc81b65c5faccf1d,participant,hcpib7dulz9f5vdd,,,click,,Čega je vidio muzej i obalu?,On je vidio muzej i obalu rijeke.,csi,0,0,1,,,2305
,Timer frame,html.Frame,2_23_0,,,,,,,1429.7000000178814,364784.90000000596,364878.878,364892.5,366322.2000000179,366323.3000000119,2024-07-31T05:47:47.638Z,366413.9,_Ss5NYbESu,incremental,anketa,6645cf40bc81b65c5faccf1d,participant,hcpib7dulz9f5vdd,,,,,Čega je vidio muzej i obalu?,On je vidio muzej i obalu rijeke.,csi,0,0,1,,,2305
,stimulus,canvas.Screen,2_23_1_0,,,,,,response,1946.9000000118976,366325,366398.054,366413.9,368360.8000000119,368575.3000000119,2024-07-31T05:47:49.890Z,368708.6,_Ss5NYbESu,incremental,anketa,6645cf40bc81b65c5faccf1d,participant,hcpib7dulz9f5vdd,,1,click @1,,Čega je vidio muzej i obalu?,On je vidio muzej i obalu rijeke.,csi,0,0,1,,,2305
,Timer frame,html.Frame,2_23_1,,,,,,,2162.300000017858,366324.10000002384,366398.054,366413.9,368576.2000000179,368576.90000000596,2024-07-31T05:47:49.891Z,368708.6,_Ss5NYbESu,incremental,anketa,6645cf40bc81b65c5faccf1d,participant,hcpib7dulz9f5vdd,,,,,Čega je vidio muzej i obalu?,On je vidio muzej i obalu rijeke.,csi,0,0,1,,,2305
,Spremanje,canvas.Screen,2_23_2,,,,,,skipped,,368577.7000000179,,,368576.2000000179,368578.40000000596,2024-07-31T05:47:49.893Z,368708.6,_Ss5NYbESu,incremental,anketa,6645cf40bc81b65c5faccf1d,participant,hcpib7dulz9f5vdd,,,,,Čega je vidio muzej i obalu?,On je vidio muzej i obalu rijeke.,csi,0,0,1,,,2305
,Question form,html.Form,2_23_3,,,,,,skipped,,368579.10000002384,,,368576.2000000179,368579.90000000596,2024-07-31T05:47:49.894Z,368708.6,_Ss5NYbESu,incremental,anketa,6645cf40bc81b65c5faccf1d,participant,hcpib7dulz9f5vdd,,,,,Čega je vidio muzej i obalu?,On je vidio muzej i obalu rijeke.,csi,0,0,1,,,2305
,Answer indication,canvas.Screen,2_23_4,,,,,,skipped,,368586.5,,,368576.2000000179,368587.40000000596,2024-07-31T05:47:49.902Z,368708.6,_Ss5NYbESu,incremental,anketa,6645cf40bc81b65c5faccf1d,participant,hcpib7dulz9f5vdd,,,,,Čega je vidio muzej i obalu?,On je vidio muzej i obalu rijeke.,csi,0,0,1,,,2305
,inter-stimulus,canvas.Screen,2_23_5,,,,,,response,659.6000000179047,368588.3000000119,368701.118,368708.6,369368.2000000179,369591.40000000596,2024-07-31T05:47:50.906Z,369689.7,_Ss5NYbESu,incremental,anketa,6645cf40bc81b65c5faccf1d,participant,hcpib7dulz9f5vdd,,,mousedown,,Čega je vidio muzej i obalu?,On je vidio muzej i obalu rijeke.,csi,0,0,1,,,2305
,Sequence,flow.Sequence,2_23,,,,,,completion,4475.700000017881,364784.60000002384,364878.878,364892.5,369368.2000000179,369593.10000002384,2024-07-31T05:47:50.907Z,369689.7,_Ss5NYbESu,incremental,anketa,6645cf40bc81b65c5faccf1d,participant,hcpib7dulz9f5vdd,,,,,Čega je vidio muzej i obalu?,On je vidio muzej i obalu rijeke.,csi,0,0,1,,,2305
,context,canvas.Screen,2_24_0_0,,,,,,response,2018.7000000059488,369594.8000000119,369675.228,369689.7,371708.40000000596,371945.10000002384,2024-07-31T05:47:53.259Z,372059.2,_Ss5NYbESu,incremental,anketa,6645cf40bc81b65c5faccf1d,participant,hcpib7dulz9f5vdd,,,click,,Što si saznao tužnu vijest da je Petar izgubio u podzemnoj??,Saznao si tužnu vijest da je Petar izgubio putovnicu u podzemnoj..,cnp,38,34,9,,,
,Timer frame,html.Frame,2_24_0,,,,,,,2256.40000002383,369594.10000002384,369675.228,369689.7,371946.10000002384,371946.7000000179,2024-07-31T05:47:53.261Z,372059.2,_Ss5NYbESu,incremental,anketa,6645cf40bc81b65c5faccf1d,participant,hcpib7dulz9f5vdd,,,,,Što si saznao tužnu vijest da je Petar izgubio u podzemnoj??,Saznao si tužnu vijest da je Petar izgubio putovnicu u podzemnoj..,cnp,38,34,9,,,
,stimulus,canvas.Screen,2_24_1_0,,,,,,response,3947.1000000119093,371948.10000002384,372051.294,372059.2,376006.3000000119,376249.5,2024-07-31T05:47:57.564Z,376316,_Ss5NYbESu,incremental,anketa,6645cf40bc81b65c5faccf1d,participant,hcpib7dulz9f5vdd,,1,click @1,,Što si saznao tužnu vijest da je Petar izgubio u podzemnoj??,Saznao si tužnu vijest da je Petar izgubio putovnicu u podzemnoj..,cnp,38,34,9,,,
,Timer frame,html.Frame,2_24_1,,,,,,,4190.799999999988,371947.40000000596,372051.294,372059.2,376250,376250.60000002384,2024-07-31T05:47:57.565Z,376316,_Ss5NYbESu,incremental,anketa,6645cf40bc81b65c5faccf1d,participant,hcpib7dulz9f5vdd,,,,,Što si saznao tužnu vijest da je Petar izgubio u podzemnoj??,Saznao si tužnu vijest da je Petar izgubio putovnicu u podzemnoj..,cnp,38,34,9,,,
,Spremanje,canvas.Screen,2_24_2,,,,,,skipped,,376251.3000000119,,,376250,376251.7000000179,2024-07-31T05:47:57.566Z,376316,_Ss5NYbESu,incremental,anketa,6645cf40bc81b65c5faccf1d,participant,hcpib7dulz9f5vdd,,,,,Što si saznao tužnu vijest da je Petar izgubio u podzemnoj??,Saznao si tužnu vijest da je Petar izgubio putovnicu u podzemnoj..,cnp,38,34,9,,,
,Question form,html.Form,2_24_3,,,,,,skipped,,376251.90000000596,,,376250,376252.3000000119,2024-07-31T05:47:57.567Z,376316,_Ss5NYbESu,incremental,anketa,6645cf40bc81b65c5faccf1d,participant,hcpib7dulz9f5vdd,,,,,Što si saznao tužnu vijest da je Petar izgubio u podzemnoj??,Saznao si tužnu vijest da je Petar izgubio putovnicu u podzemnoj..,cnp,38,34,9,,,
,Answer indication,canvas.Screen,2_24_4,,,,,,skipped,,376255.8000000119,,,376250,376256.10000002384,2024-07-31T05:47:57.571Z,376316,_Ss5NYbESu,incremental,anketa,6645cf40bc81b65c5faccf1d,participant,hcpib7dulz9f5vdd,,,,,Što si saznao tužnu vijest da je Petar izgubio u podzemnoj??,Saznao si tužnu vijest da je Petar izgubio putovnicu u podzemnoj..,cnp,38,34,9,,,
,inter-stimulus,canvas.Screen,2_24_5,,,,,,response,1040.4000000059605,376256.5,376308.782,376316,377356.40000000596,377594.10000002384,2024-07-31T05:47:58.908Z,377721.5,_Ss5NYbESu,incremental,anketa,6645cf40bc81b65c5faccf1d,participant,hcpib7dulz9f5vdd,,,mousedown,,Što si saznao tužnu vijest da je Petar izgubio u podzemnoj??,Saznao si tužnu vijest da je Petar izgubio putovnicu u podzemnoj..,cnp,38,34,9,,,
,Sequence,flow.Sequence,2_24,,,,,,completion,7666.700000005949,369593.90000000596,369675.228,369689.7,377356.40000000596,377595.5,2024-07-31T05:47:58.910Z,377721.5,_Ss5NYbESu,incremental,anketa,6645cf40bc81b65c5faccf1d,participant,hcpib7dulz9f5vdd,,,,,Što si saznao tužnu vijest da je Petar izgubio u podzemnoj??,Saznao si tužnu vijest da je Petar izgubio putovnicu u podzemnoj..,cnp,38,34,9,,,
,context,canvas.Screen,2_25_0_0,,,,,,response,1390.9000000059605,377596.90000000596,377699.278,377721.5,379112.40000000596,379342.2000000179,2024-07-31T05:48:00.657Z,379442.1,_Ss5NYbESu,incremental,anketa,6645cf40bc81b65c5faccf1d,participant,hcpib7dulz9f5vdd,,,click,,Za kim su banditi imali pitanja?,Ti banditi su imali pitanja za mene.,nf,,,40,,,
,Timer frame,html.Frame,2_25_0,,,,,,,1622.5,377596.40000000596,377699.278,377721.5,379344,379344.90000000596,2024-07-31T05:48:00.659Z,379442.1,_Ss5NYbESu,incremental,anketa,6645cf40bc81b65c5faccf1d,participant,hcpib7dulz9f5vdd,,,,,Za kim su banditi imali pitanja?,Ti banditi su imali pitanja za mene.,nf,,,40,,,
,stimulus,canvas.Screen,2_25_1_0,,,,,,response,5037.100000017905,379346.8000000119,379434.454,379442.1,384479.2000000179,384650.90000000596,2024-07-31T05:48:05.965Z,384788,_Ss5NYbESu,incremental,anketa,6645cf40bc81b65c5faccf1d,participant,hcpib7dulz9f5vdd,,1,click @1,,Za kim su banditi imali pitanja?,Ti banditi su imali pitanja za mene.,nf,,,40,,,
,Timer frame,html.Frame,2_25_1,,,,,,,5209.600000017905,379346,379434.454,379442.1,384651.7000000179,384652.60000002384,2024-07-31T05:48:05.967Z,384788,_Ss5NYbESu,incremental,anketa,6645cf40bc81b65c5faccf1d,participant,hcpib7dulz9f5vdd,,,,,Za kim su banditi imali pitanja?,Ti banditi su imali pitanja za mene.,nf,,,40,,,
,Spremanje,canvas.Screen,2_25_2,,,,,,skipped,,384653.2000000179,,,384651.7000000179,384654.2000000179,2024-07-31T05:48:05.969Z,384788,_Ss5NYbESu,incremental,anketa,6645cf40bc81b65c5faccf1d,participant,hcpib7dulz9f5vdd,,,,,Za kim su banditi imali pitanja?,Ti banditi su imali pitanja za mene.,nf,,,40,,,
,Question form,html.Form,2_25_3,,,,,,skipped,,384655,,,384651.7000000179,384655.7000000179,2024-07-31T05:48:05.970Z,384788,_Ss5NYbESu,incremental,anketa,6645cf40bc81b65c5faccf1d,participant,hcpib7dulz9f5vdd,,,,,Za kim su banditi imali pitanja?,Ti banditi su imali pitanja za mene.,nf,,,40,,,
,Answer indication,canvas.Screen,2_25_4,,,,,,skipped,,384662.5,,,384651.7000000179,384663.40000000596,2024-07-31T05:48:05.978Z,384788,_Ss5NYbESu,incremental,anketa,6645cf40bc81b65c5faccf1d,participant,hcpib7dulz9f5vdd,,,,,Za kim su banditi imali pitanja?,Ti banditi su imali pitanja za mene.,nf,,,40,,,
,inter-stimulus,canvas.Screen,2_25_5,,,,,,response,729.1000000238419,384664.3000000119,384772.32,384788,385517.10000002384,385744,2024-07-31T05:48:07.058Z,385844,_Ss5NYbESu,incremental,anketa,6645cf40bc81b65c5faccf1d,participant,hcpib7dulz9f5vdd,,,mousedown,,Za kim su banditi imali pitanja?,Ti banditi su imali pitanja za mene.,nf,,,40,,,
,Sequence,flow.Sequence,2_25,,,,,,completion,7795.600000023842,377596.10000002384,377699.278,377721.5,385517.10000002384,385745.90000000596,2024-07-31T05:48:07.060Z,385844,_Ss5NYbESu,incremental,anketa,6645cf40bc81b65c5faccf1d,participant,hcpib7dulz9f5vdd,,,,,Za kim su banditi imali pitanja?,Ti banditi su imali pitanja za mene.,nf,,,40,,,
,context,canvas.Screen,2_26_0_0,,,,,,response,1888.6000000238419,385747.7000000179,385837.958,385844,387732.60000002384,387980.40000000596,2024-07-31T05:48:09.295Z,388097.1,_Ss5NYbESu,incremental,anketa,6645cf40bc81b65c5faccf1d,participant,hcpib7dulz9f5vdd,,,click,,O čemu je Ivo cijelu večer pričao?,Ivo je cijelu večer pričao o autima.,gf,,,47,,,
,Timer frame,html.Frame,2_26_0,,,,,,,2137,385747,385837.958,385844,387981,387982.2000000179,2024-07-31T05:48:09.297Z,388097.1,_Ss5NYbESu,incremental,anketa,6645cf40bc81b65c5faccf1d,participant,hcpib7dulz9f5vdd,,,,,O čemu je Ivo cijelu večer pričao?,Ivo je cijelu večer pričao o autima.,gf,,,47,,,
,stimulus,canvas.Screen,2_26_1_0,,,,,,response,1395.0000000238651,387983.7000000179,388081.22,388097.1,389492.10000002384,389753.8000000119,2024-07-31T05:48:11.068Z,389851.3,_Ss5NYbESu,incremental,anketa,6645cf40bc81b65c5faccf1d,participant,hcpib7dulz9f5vdd,,7,click @7,,O čemu je Ivo cijelu večer pričao?,Ivo je cijelu večer pričao o autima.,gf,,,47,,,
,Timer frame,html.Frame,2_26_1,,,,,,,1657.9000000000233,387982.90000000596,388081.22,388097.1,389755,389755.8000000119,2024-07-31T05:48:11.070Z,389851.3,_Ss5NYbESu,incremental,anketa,6645cf40bc81b65c5faccf1d,participant,hcpib7dulz9f5vdd,,,,,O čemu je Ivo cijelu večer pričao?,Ivo je cijelu večer pričao o autima.,gf,,,47,,,
,Spremanje,canvas.Screen,2_26_2,,,,,,skipped,,389756.60000002384,,,389755,389757.10000002384,2024-07-31T05:48:11.071Z,389851.3,_Ss5NYbESu,incremental,anketa,6645cf40bc81b65c5faccf1d,participant,hcpib7dulz9f5vdd,,,,,O čemu je Ivo cijelu večer pričao?,Ivo je cijelu večer pričao o autima.,gf,,,47,,,
,Question form,html.Form,2_26_3,,,,,,skipped,,389758.10000002384,,,389755,389758.90000000596,2024-07-31T05:48:11.073Z,389851.3,_Ss5NYbESu,incremental,anketa,6645cf40bc81b65c5faccf1d,participant,hcpib7dulz9f5vdd,,,,,O čemu je Ivo cijelu večer pričao?,Ivo je cijelu večer pričao o autima.,gf,,,47,,,
,Answer indication,canvas.Screen,2_26_4,,,,,,skipped,,389768.7000000179,,,389755,389769.90000000596,2024-07-31T05:48:11.084Z,389851.3,_Ss5NYbESu,incremental,anketa,6645cf40bc81b65c5faccf1d,participant,hcpib7dulz9f5vdd,,,,,O čemu je Ivo cijelu večer pričao?,Ivo je cijelu večer pričao o autima.,gf,,,47,,,
,inter-stimulus,canvas.Screen,2_26_5,,,,,,response,789.900000017893,389770.90000000596,389843.852,389851.3,390641.2000000179,390899,2024-07-31T05:48:12.213Z,390984.588,_Ss5NYbESu,incremental,anketa,6645cf40bc81b65c5faccf1d,participant,hcpib7dulz9f5vdd,,,mousedown,,O čemu je Ivo cijelu večer pričao?,Ivo je cijelu večer pričao o autima.,gf,,,47,,,
,Sequence,flow.Sequence,2_26,,,,,,completion,4797.200000017881,385746.7000000179,385837.958,385844,390641.2000000179,390900.40000000596,2024-07-31T05:48:12.215Z,390984.588,_Ss5NYbESu,incremental,anketa,6645cf40bc81b65c5faccf1d,participant,hcpib7dulz9f5vdd,,,,,O čemu je Ivo cijelu večer pričao?,Ivo je cijelu večer pričao o autima.,gf,,,47,,,
,context,canvas.Screen,2_27_0_0,,,,,,response,2612.012000023853,390902.60000002384,390984.588,390984.588,393596.60000002384,393865,2024-07-31T05:48:15.179Z,393958.5,_Ss5NYbESu,incremental,anketa,6645cf40bc81b65c5faccf1d,participant,hcpib7dulz9f5vdd,,,click,,Koliko vidim dječaka kojem je ljubazni poštar poklonio bicikla??,Vidim dječaka kojem je ljubazni poštar poklonio dva bicikla..,cnp,38,38,10,,,2305
,Timer frame,html.Frame,2_27_0,,,,,,,2881.6120000178926,390901.8000000119,390984.588,390984.588,393866.2000000179,393867.2000000179,2024-07-31T05:48:15.182Z,393958.5,_Ss5NYbESu,incremental,anketa,6645cf40bc81b65c5faccf1d,participant,hcpib7dulz9f5vdd,,,,,Koliko vidim dječaka kojem je ljubazni poštar poklonio bicikla??,Vidim dječaka kojem je ljubazni poštar poklonio dva bicikla..,cnp,38,38,10,,,2305
,stimulus,canvas.Screen,2_27_1_0,,,,,,response,1509.9000000059605,393868.90000000596,393942.686,393958.5,395468.40000000596,395703.8000000119,2024-07-31T05:48:17.018Z,395812.5,_Ss5NYbESu,incremental,anketa,6645cf40bc81b65c5faccf1d,participant,hcpib7dulz9f5vdd,,1,click @1,,Koliko vidim dječaka kojem je ljubazni poštar poklonio bicikla??,Vidim dječaka kojem je ljubazni poštar poklonio dva bicikla..,cnp,38,38,10,,,2305
,Timer frame,html.Frame,2_27_1,,,,,,,1746.300000011921,393868,393942.686,393958.5,395704.8000000119,395705.7000000179,2024-07-31T05:48:17.020Z,395812.5,_Ss5NYbESu,incremental,anketa,6645cf40bc81b65c5faccf1d,participant,hcpib7dulz9f5vdd,,,,,Koliko vidim dječaka kojem je ljubazni poštar poklonio bicikla??,Vidim dječaka kojem je ljubazni poštar poklonio dva bicikla..,cnp,38,38,10,,,2305
,Spremanje,canvas.Screen,2_27_2,,,,,,skipped,,395706.40000000596,,,395704.8000000119,395707.10000002384,2024-07-31T05:48:17.021Z,395812.5,_Ss5NYbESu,incremental,anketa,6645cf40bc81b65c5faccf1d,participant,hcpib7dulz9f5vdd,,,,,Koliko vidim dječaka kojem je ljubazni poštar poklonio bicikla??,Vidim dječaka kojem je ljubazni poštar poklonio dva bicikla..,cnp,38,38,10,,,2305
,Question form,html.Form,2_27_3,,,,,,skipped,,395707.7000000179,,,395704.8000000119,395708.60000002384,2024-07-31T05:48:17.023Z,395812.5,_Ss5NYbESu,incremental,anketa,6645cf40bc81b65c5faccf1d,participant,hcpib7dulz9f5vdd,,,,,Koliko vidim dječaka kojem je ljubazni poštar poklonio bicikla??,Vidim dječaka kojem je ljubazni poštar poklonio dva bicikla..,cnp,38,38,10,,,2305
,Answer indication,canvas.Screen,2_27_4,,,,,,skipped,,395714.3000000119,,,395704.8000000119,395715.3000000119,2024-07-31T05:48:17.030Z,395812.5,_Ss5NYbESu,incremental,anketa,6645cf40bc81b65c5faccf1d,participant,hcpib7dulz9f5vdd,,,,,Koliko vidim dječaka kojem je ljubazni poštar poklonio bicikla??,Vidim dječaka kojem je ljubazni poštar poklonio dva bicikla..,cnp,38,38,10,,,2305
,inter-stimulus,canvas.Screen,2_27_5,,,,,,response,580.4000000059605,395716.10000002384,395796.72,395812.5,396392.90000000596,396636.7000000179,2024-07-31T05:48:17.951Z,396735.3,_Ss5NYbESu,incremental,anketa,6645cf40bc81b65c5faccf1d,participant,hcpib7dulz9f5vdd,,,mousedown,,Koliko vidim dječaka kojem je ljubazni poštar poklonio bicikla??,Vidim dječaka kojem je ljubazni poštar poklonio dva bicikla..,cnp,38,38,10,,,2305
,Sequence,flow.Sequence,2_27,,,,,,completion,5408.312000005972,390901.2000000179,390984.588,390984.588,396392.90000000596,396638.7000000179,2024-07-31T05:48:17.953Z,396735.3,_Ss5NYbESu,incremental,anketa,6645cf40bc81b65c5faccf1d,participant,hcpib7dulz9f5vdd,,,,,Koliko vidim dječaka kojem je ljubazni poštar poklonio bicikla??,Vidim dječaka kojem je ljubazni poštar poklonio dva bicikla..,cnp,38,38,10,,,2305
,context,canvas.Screen,2_28_0_0,,,,,,response,1928.600000005972,396640.5,396729.13,396735.3,398663.90000000596,398935.8000000119,2024-07-31T05:48:20.250Z,399063.3,_Ss5NYbESu,incremental,anketa,6645cf40bc81b65c5faccf1d,participant,hcpib7dulz9f5vdd,,,click,,Petar i Mara su jučer otišli u kino pogledati dobru komediju..,Jučer su Petar i Mara otišli u kino pogledati dobru komediju..,gf,35,35,46,,,
,Timer frame,html.Frame,2_28_0,,,,,,,2201.3000000238535,396639.8000000119,396729.13,396735.3,398936.60000002384,398938.10000002384,2024-07-31T05:48:20.252Z,399063.3,_Ss5NYbESu,incremental,anketa,6645cf40bc81b65c5faccf1d,participant,hcpib7dulz9f5vdd,,,,,Petar i Mara su jučer otišli u kino pogledati dobru komediju..,Jučer su Petar i Mara otišli u kino pogledati dobru komediju..,gf,35,35,46,,,
,stimulus,canvas.Screen,2_28_1_0,,,,,,response,2304.8000000238535,398939.8000000119,399039.284,399063.3,401368.10000002384,401622.2000000179,2024-07-31T05:48:22.937Z,401715.5,_Ss5NYbESu,incremental,anketa,6645cf40bc81b65c5faccf1d,participant,hcpib7dulz9f5vdd,,7,click @7,,Petar i Mara su jučer otišli u kino pogledati dobru komediju..,Jučer su Petar i Mara otišli u kino pogledati dobru komediju..,gf,35,35,46,,,
,Timer frame,html.Frame,2_28_1,,,,,,,2559.8000000238535,398938.90000000596,399039.284,399063.3,401623.10000002384,401623.8000000119,2024-07-31T05:48:22.938Z,401715.5,_Ss5NYbESu,incremental,anketa,6645cf40bc81b65c5faccf1d,participant,hcpib7dulz9f5vdd,,,,,Petar i Mara su jučer otišli u kino pogledati dobru komediju..,Jučer su Petar i Mara otišli u kino pogledati dobru komediju..,gf,35,35,46,,,
,Spremanje,canvas.Screen,2_28_2,,,,,,skipped,,401624.60000002384,,,401623.10000002384,401625.2000000179,2024-07-31T05:48:22.940Z,401715.5,_Ss5NYbESu,incremental,anketa,6645cf40bc81b65c5faccf1d,participant,hcpib7dulz9f5vdd,,,,,Petar i Mara su jučer otišli u kino pogledati dobru komediju..,Jučer su Petar i Mara otišli u kino pogledati dobru komediju..,gf,35,35,46,,,
,Question form,html.Form,2_28_3,,,,,,skipped,,401626.10000002384,,,401623.10000002384,401626.90000000596,2024-07-31T05:48:22.941Z,401715.5,_Ss5NYbESu,incremental,anketa,6645cf40bc81b65c5faccf1d,participant,hcpib7dulz9f5vdd,,,,,Petar i Mara su jučer otišli u kino pogledati dobru komediju..,Jučer su Petar i Mara otišli u kino pogledati dobru komediju..,gf,35,35,46,,,
,Answer indication,canvas.Screen,2_28_4,,,,,,skipped,,401634.90000000596,,,401623.10000002384,401635.90000000596,2024-07-31T05:48:22.950Z,401715.5,_Ss5NYbESu,incremental,anketa,6645cf40bc81b65c5faccf1d,participant,hcpib7dulz9f5vdd,,,,,Petar i Mara su jučer otišli u kino pogledati dobru komediju..,Jučer su Petar i Mara otišli u kino pogledati dobru komediju..,gf,35,35,46,,,
,inter-stimulus,canvas.Screen,2_28_5,,,,,,response,768.1000000238419,401636.7000000179,401707.694,401715.5,402483.60000002384,402710.2000000179,2024-07-31T05:48:24.025Z,402804.7,_Ss5NYbESu,incremental,anketa,6645cf40bc81b65c5faccf1d,participant,hcpib7dulz9f5vdd,,,mousedown,,Petar i Mara su jučer otišli u kino pogledati dobru komediju..,Jučer su Petar i Mara otišli u kino pogledati dobru komediju..,gf,35,35,46,,,
