meta,sender,sender_type,sender_id,age,education,croatian-knowledge,occupation,,ended_on,duration,time_run,time_render,time_show,time_end,time_commit,timestamp,time_switch,openLabId,type,task,project,status,code,confirmationCode,response,response_action,answer_true,stimulus,context,island_type,transfer_s,transfer_c,id,right_answer,question,change_date
"{""labjs_version"":""20.2.4"",""labjs_build"":{""flavor"":""production"",""commit"":""f5b4a49f956347addd546a832a3327688c2c0fef""},""location"":""https://open-lab.online/test/anketa/66a922b2e3bab725623a41ab"",""userAgent"":""Mozilla/5.0 (Windows NT 10.0; Win64; x64) AppleWebKit/537.36 (KHTML, like Gecko) Chrome/126.0.0.0 Safari/537.36 OPR/112.0.0.0"",""platform"":""Win32"",""language"":""en-GB"",""locale"":""en-GB"",""timeZone"":""Europe/Zagreb"",""timezoneOffset"":-120,""screen_width"":1920,""screen_height"":1080,""scroll_width"":1866,""scroll_height"":871,""window_innerWidth"":1866,""window_innerHeight"":919,""devicePixelRatio"":1}",Demography form,html.Form,0,27,master,mother-tongue,STEM,,form submission,13922.814000047683,1165.4000000953674,1177.886,1177.886,15100.700000047684,15101.100000143051,2024-07-30T17:28:33.599Z,15114.1,BMPNF2epqC,incremental,anketa,6645cf40bc81b65c5faccf1d,participant,hcpib7dulz8oyvjr,820752,,,,,,,,,,,,
,context,canvas.Screen,1_0,,,,,,response,6511.500000143051,15101.400000095367,15099.564,15114.1,21625.60000014305,21626.300000190735,2024-07-30T17:28:40.124Z,21635.3,BMPNF2epqC,incremental,anketa,6645cf40bc81b65c5faccf1d,participant,hcpib7dulz8oyvjr,,,click,,,,,,,,,,
,stimulus,canvas.Screen,1_1,,,,,,response,23295.100000095368,21626.300000190735,21622,21635.3,44930.40000009537,44931.5,2024-07-30T17:29:03.430Z,44936.9,BMPNF2epqC,incremental,anketa,6645cf40bc81b65c5faccf1d,participant,hcpib7dulz8oyvjr,,6,click @6,,,,,,,,,,
,inter-stimulus,canvas.Screen,1_2,,,,,,response,11989.300000047682,44931.60000014305,44926.346,44936.9,56926.200000047684,56927.200000047684,2024-07-30T17:29:15.426Z,56941.2,BMPNF2epqC,incremental,anketa,6645cf40bc81b65c5faccf1d,participant,hcpib7dulz8oyvjr,,,mousedown,,,,,,,,,,
,context,canvas.Screen,1_3,,,,,,response,2046.300000000003,56927.300000190735,56927.8,56941.2,58987.5,58988.10000014305,2024-07-30T17:29:17.487Z,58995.4,BMPNF2epqC,incremental,anketa,6645cf40bc81b65c5faccf1d,participant,hcpib7dulz8oyvjr,,,click,,,,,,,,,,
,stimulus,canvas.Screen,1_4,,,,,,response,7090.20000014305,58988.200000047684,58985.006,58995.4,66085.60000014305,66086.5,2024-07-30T17:29:24.585Z,66091,BMPNF2epqC,incremental,anketa,6645cf40bc81b65c5faccf1d,participant,hcpib7dulz8oyvjr,,1,click @1,,,,,,,,,,
,inter-stimulus,canvas.Screen,1_5,,,,,,response,1061.6000001430511,66086.5,66081.03,66091,67152.60000014305,67154.60000014305,2024-07-30T17:29:25.653Z,67171.4,BMPNF2epqC,incremental,anketa,6645cf40bc81b65c5faccf1d,participant,hcpib7dulz8oyvjr,,,mousedown,,,,,,,,,,
,context,canvas.Screen,1_6,,,,,,response,2150.100000000006,67154.90000009537,67144.8,67171.4,69321.5,69322.10000014305,2024-07-30T17:29:27.821Z,69332.1,BMPNF2epqC,incremental,anketa,6645cf40bc81b65c5faccf1d,participant,hcpib7dulz8oyvjr,,,click,,,,,,,,,,
,stimulus,canvas.Screen,1_7_0,,,,,,response,3895.399999999994,69323.5,69321.834,69332.1,73227.5,73228.80000019073,2024-07-30T17:29:31.727Z,73253.6,BMPNF2epqC,incremental,anketa,6645cf40bc81b65c5faccf1d,participant,hcpib7dulz8oyvjr,,7,click @7,,,,,,,,,,
,Timer frame,html.Frame,1_7,,,,,,,3896.8000000953616,69322.30000019073,69321.834,69332.1,73228.90000009537,73229.10000014305,2024-07-30T17:29:31.728Z,73253.6,BMPNF2epqC,incremental,anketa,6645cf40bc81b65c5faccf1d,participant,hcpib7dulz8oyvjr,,,,,,,,,,,,,
,Screen,canvas.Screen,1_8,,,,,,response,2684.5000001430453,73229.20000004768,73240.2,73253.6,75938.10000014305,75942.70000004768,2024-07-30T17:29:34.441Z,75947.9,BMPNF2epqC,incremental,anketa,6645cf40bc81b65c5faccf1d,participant,hcpib7dulz8oyvjr,,,mousedown,,,,,,,,,,
,Question form,html.Form,1_9,,,,,,form submission,9877.500000095373,75943.10000014305,75947.612,75947.9,85825.40000009537,85825.60000014305,2024-07-30T17:29:44.324Z,85834.73,BMPNF2epqC,incremental,anketa,6645cf40bc81b65c5faccf1d,participant,hcpib7dulz8oyvjr,,,,Zrele,,,,,,,,,
,Screen,canvas.Screen,1_10,,,,,,response,1302.3700001430552,85826.60000014305,85834.73,85834.73,87137.10000014305,87139,2024-07-30T17:29:45.637Z,87165.3,BMPNF2epqC,incremental,anketa,6645cf40bc81b65c5faccf1d,participant,hcpib7dulz8oyvjr,,,mousedown,,,,,,,,,,
,inter-stimulus,canvas.Screen,1_11,,,,,,response,3608.900000047681,87139.10000014305,87151.9,87165.3,90774.20000004768,90778.5,2024-07-30T17:29:49.277Z,90793.1,BMPNF2epqC,incremental,anketa,6645cf40bc81b65c5faccf1d,participant,hcpib7dulz8oyvjr,,,mousedown,,,,,,,,,,
,First stimuli,flow.Sequence,1,,,,,,completion,75660.10000004768,15101.300000190735,15099.564,15114.1,90774.20000004768,90784.40000009537,2024-07-30T17:29:49.283Z,90793.1,BMPNF2epqC,incremental,anketa,6645cf40bc81b65c5faccf1d,participant,hcpib7dulz8oyvjr,,,,,,,,,,,,,
,context,canvas.Screen,2_0_0_0,,,,,,response,2566.3000000953616,90785.40000009537,90786.46,90793.1,93359.40000009537,93360.10000014305,2024-07-30T17:29:51.859Z,93380.8,BMPNF2epqC,incremental,anketa,6645cf40bc81b65c5faccf1d,participant,hcpib7dulz8oyvjr,,,click,,Večeras je Anna nalakirala nokte.,Anna je večeras nalakirala nokte.,gf,,,49,,,
,Timer frame,html.Frame,2_0_0,,,,,,,2567.200000190729,90784.90000009537,90786.46,90793.1,93360.30000019073,93360.30000019073,2024-07-30T17:29:51.859Z,93380.8,BMPNF2epqC,incremental,anketa,6645cf40bc81b65c5faccf1d,participant,hcpib7dulz8oyvjr,,,,,Večeras je Anna nalakirala nokte.,Anna je večeras nalakirala nokte.,gf,,,49,,,
,stimulus,canvas.Screen,2_0_1_0,,,,,,response,2389.699999999997,93360.40000009537,93367.4,93380.8,95770.5,95771.10000014305,2024-07-30T17:29:54.270Z,95781.6,BMPNF2epqC,incremental,anketa,6645cf40bc81b65c5faccf1d,participant,hcpib7dulz8oyvjr,,7,click @7,,Večeras je Anna nalakirala nokte.,Anna je večeras nalakirala nokte.,gf,,,49,,,
,Timer frame,html.Frame,2_0_1,,,,,,,2390.400000047681,93360.40000009537,93367.4,93380.8,95771.20000004768,95771.40000009537,2024-07-30T17:29:54.270Z,95781.6,BMPNF2epqC,incremental,anketa,6645cf40bc81b65c5faccf1d,participant,hcpib7dulz8oyvjr,,,,,Večeras je Anna nalakirala nokte.,Anna je večeras nalakirala nokte.,gf,,,49,,,
,Spremanje,canvas.Screen,2_0_2,,,,,,skipped,,95771.40000009537,,,95771.20000004768,95771.40000009537,2024-07-30T17:29:54.270Z,95781.6,BMPNF2epqC,incremental,anketa,6645cf40bc81b65c5faccf1d,participant,hcpib7dulz8oyvjr,,,,,Večeras je Anna nalakirala nokte.,Anna je večeras nalakirala nokte.,gf,,,49,,,
,Question form,html.Form,2_0_3,,,,,,skipped,,95771.40000009537,,,95771.20000004768,95771.5,2024-07-30T17:29:54.270Z,95781.6,BMPNF2epqC,incremental,anketa,6645cf40bc81b65c5faccf1d,participant,hcpib7dulz8oyvjr,,,,,Večeras je Anna nalakirala nokte.,Anna je večeras nalakirala nokte.,gf,,,49,,,
,Answer indication,canvas.Screen,2_0_4,,,,,,skipped,,95772.10000014305,,,95771.20000004768,95772.10000014305,2024-07-30T17:29:54.271Z,95781.6,BMPNF2epqC,incremental,anketa,6645cf40bc81b65c5faccf1d,participant,hcpib7dulz8oyvjr,,,,,Večeras je Anna nalakirala nokte.,Anna je večeras nalakirala nokte.,gf,,,49,,,
,inter-stimulus,canvas.Screen,2_0_5,,,,,,response,931.5000001430453,95772.20000004768,95771.666,95781.6,96713.10000014305,96719,2024-07-30T17:29:55.217Z,96728.7,BMPNF2epqC,incremental,anketa,6645cf40bc81b65c5faccf1d,participant,hcpib7dulz8oyvjr,,,mousedown,,Večeras je Anna nalakirala nokte.,Anna je večeras nalakirala nokte.,gf,,,49,,,
,Sequence,flow.Sequence,2_0,,,,,,completion,5920.000000143045,90784.70000004768,90786.46,90793.1,96713.10000014305,96719.90000009537,2024-07-30T17:29:55.218Z,96728.7,BMPNF2epqC,incremental,anketa,6645cf40bc81b65c5faccf1d,participant,hcpib7dulz8oyvjr,,,,,Večeras je Anna nalakirala nokte.,Anna je večeras nalakirala nokte.,gf,,,49,,,
,context,canvas.Screen,2_1_0_0,,,,,,response,2115.7000000953703,96720.90000009537,96721.816,96728.7,98844.40000009537,98845,2024-07-30T17:29:57.343Z,98849.3,BMPNF2epqC,incremental,anketa,6645cf40bc81b65c5faccf1d,participant,hcpib7dulz8oyvjr,,,click,,Kakve izgrađene u viktorijansko doba te zgrade su izgrađene??,Te su zgrade izgrađene u viktorijansko doba.,nf,36,,43,,,
,Timer frame,html.Frame,2_1_0,,,,,,,2116.400000143054,96720.40000009537,96721.816,96728.7,98845.10000014305,98845.10000014305,2024-07-30T17:29:57.344Z,98849.3,BMPNF2epqC,incremental,anketa,6645cf40bc81b65c5faccf1d,participant,hcpib7dulz8oyvjr,,,,,Kakve izgrađene u viktorijansko doba te zgrade su izgrađene??,Te su zgrade izgrađene u viktorijansko doba.,nf,36,,43,,,
,stimulus,canvas.Screen,2_1_1_0,,,,,,response,9254.199999999997,98845.30000019073,98839.366,98849.3,108103.5,108104.20000004768,2024-07-30T17:30:06.602Z,108120.4,BMPNF2epqC,incremental,anketa,6645cf40bc81b65c5faccf1d,participant,hcpib7dulz8oyvjr,,1,click @1,,Kakve izgrađene u viktorijansko doba te zgrade su izgrađene??,Te su zgrade izgrađene u viktorijansko doba.,nf,36,,43,,,
,Timer frame,html.Frame,2_1_1,,,,,,,9254.90000004768,98845.10000014305,98839.366,98849.3,108104.20000004768,108104.30000019073,2024-07-30T17:30:06.602Z,108120.4,BMPNF2epqC,incremental,anketa,6645cf40bc81b65c5faccf1d,participant,hcpib7dulz8oyvjr,,,,,Kakve izgrađene u viktorijansko doba te zgrade su izgrađene??,Te su zgrade izgrađene u viktorijansko doba.,nf,36,,43,,,
,Spremanje,canvas.Screen,2_1_2,,,,,,skipped,,108104.30000019073,,,108104.20000004768,108104.30000019073,2024-07-30T17:30:06.602Z,108120.4,BMPNF2epqC,incremental,anketa,6645cf40bc81b65c5faccf1d,participant,hcpib7dulz8oyvjr,,,,,Kakve izgrađene u viktorijansko doba te zgrade su izgrađene??,Te su zgrade izgrađene u viktorijansko doba.,nf,36,,43,,,
,Question form,html.Form,2_1_3,,,,,,skipped,,108104.30000019073,,,108104.20000004768,108104.40000009537,2024-07-30T17:30:06.602Z,108120.4,BMPNF2epqC,incremental,anketa,6645cf40bc81b65c5faccf1d,participant,hcpib7dulz8oyvjr,,,,,Kakve izgrađene u viktorijansko doba te zgrade su izgrađene??,Te su zgrade izgrađene u viktorijansko doba.,nf,36,,43,,,
,Answer indication,canvas.Screen,2_1_4,,,,,,skipped,,108104.90000009537,,,108104.20000004768,108105,2024-07-30T17:30:06.603Z,108120.4,BMPNF2epqC,incremental,anketa,6645cf40bc81b65c5faccf1d,participant,hcpib7dulz8oyvjr,,,,,Kakve izgrađene u viktorijansko doba te zgrade su izgrađene??,Te su zgrade izgrađene u viktorijansko doba.,nf,36,,43,,,
,inter-stimulus,canvas.Screen,2_1_5,,,,,,response,1616.3000000476895,108105,108092.664,108120.4,109736.70000004768,109741.5,2024-07-30T17:30:08.239Z,109759.9,BMPNF2epqC,incremental,anketa,6645cf40bc81b65c5faccf1d,participant,hcpib7dulz8oyvjr,,,mousedown,,Kakve izgrađene u viktorijansko doba te zgrade su izgrađene??,Te su zgrade izgrađene u viktorijansko doba.,nf,36,,43,,,
,Sequence,flow.Sequence,2_1,,,,,,completion,13008.000000047687,96720.20000004768,96721.816,96728.7,109736.70000004768,109742,2024-07-30T17:30:08.240Z,109759.9,BMPNF2epqC,incremental,anketa,6645cf40bc81b65c5faccf1d,participant,hcpib7dulz8oyvjr,,,,,Kakve izgrađene u viktorijansko doba te zgrade su izgrađene??,Te su zgrade izgrađene u viktorijansko doba.,nf,36,,43,,,
,context,canvas.Screen,2_2_0_0,,,,,,response,2319.600000000006,109742.70000004768,109746.6,109759.9,112079.5,112080.10000014305,2024-07-30T17:30:10.578Z,112087.432,BMPNF2epqC,incremental,anketa,6645cf40bc81b65c5faccf1d,participant,hcpib7dulz8oyvjr,,,click,,Stare su samo Čehovljeve priče bile u ovoj knjižnici..,Samo su Čehovljeve priče bile stare u ovoj knjižnici..,di,35,35,33,,,
,Timer frame,html.Frame,2_2_0,,,,,,,2320.200000143057,109742.30000019073,109746.6,109759.9,112080.10000014305,112080.20000004768,2024-07-30T17:30:10.578Z,112087.432,BMPNF2epqC,incremental,anketa,6645cf40bc81b65c5faccf1d,participant,hcpib7dulz8oyvjr,,,,,Stare su samo Čehovljeve priče bile u ovoj knjižnici..,Samo su Čehovljeve priče bile stare u ovoj knjižnici..,di,35,35,33,,,
,stimulus,canvas.Screen,2_2_1_0,,,,,,response,7559.968000095367,112080.30000019073,112087.432,112087.432,119647.40000009537,119648.20000004768,2024-07-30T17:30:18.146Z,119656.7,BMPNF2epqC,incremental,anketa,6645cf40bc81b65c5faccf1d,participant,hcpib7dulz8oyvjr,,6,click @6,,Stare su samo Čehovljeve priče bile u ovoj knjižnici..,Samo su Čehovljeve priče bile stare u ovoj knjižnici..,di,35,35,33,,,
,Timer frame,html.Frame,2_2_1,,,,,,,7560.868000190734,112080.20000004768,112087.432,112087.432,119648.30000019073,119648.5,2024-07-30T17:30:18.146Z,119656.7,BMPNF2epqC,incremental,anketa,6645cf40bc81b65c5faccf1d,participant,hcpib7dulz8oyvjr,,,,,Stare su samo Čehovljeve priče bile u ovoj knjižnici..,Samo su Čehovljeve priče bile stare u ovoj knjižnici..,di,35,35,33,,,
,Spremanje,canvas.Screen,2_2_2,,,,,,skipped,,119648.5,,,119648.30000019073,119648.5,2024-07-30T17:30:18.146Z,119656.7,BMPNF2epqC,incremental,anketa,6645cf40bc81b65c5faccf1d,participant,hcpib7dulz8oyvjr,,,,,Stare su samo Čehovljeve priče bile u ovoj knjižnici..,Samo su Čehovljeve priče bile stare u ovoj knjižnici..,di,35,35,33,,,
,Question form,html.Form,2_2_3,,,,,,skipped,,119648.5,,,119648.30000019073,119648.70000004768,2024-07-30T17:30:18.147Z,119656.7,BMPNF2epqC,incremental,anketa,6645cf40bc81b65c5faccf1d,participant,hcpib7dulz8oyvjr,,,,,Stare su samo Čehovljeve priče bile u ovoj knjižnici..,Samo su Čehovljeve priče bile stare u ovoj knjižnici..,di,35,35,33,,,
,Answer indication,canvas.Screen,2_2_4,,,,,,skipped,,119649.20000004768,,,119648.30000019073,119649.20000004768,2024-07-30T17:30:18.147Z,119656.7,BMPNF2epqC,incremental,anketa,6645cf40bc81b65c5faccf1d,participant,hcpib7dulz8oyvjr,,,,,Stare su samo Čehovljeve priče bile u ovoj knjižnici..,Samo su Čehovljeve priče bile stare u ovoj knjižnici..,di,35,35,33,,,
,inter-stimulus,canvas.Screen,2_2_5,,,,,,response,2143.600000190738,119649.30000019073,119643.4,119656.7,121800.30000019073,121801.80000019073,2024-07-30T17:30:20.300Z,121817.5,BMPNF2epqC,incremental,anketa,6645cf40bc81b65c5faccf1d,participant,hcpib7dulz8oyvjr,,,mousedown,,Stare su samo Čehovljeve priče bile u ovoj knjižnici..,Samo su Čehovljeve priče bile stare u ovoj knjižnici..,di,35,35,33,,,
,Sequence,flow.Sequence,2_2,,,,,,completion,12040.40000019074,109742.20000004768,109746.6,109759.9,121800.30000019073,121801.90000009537,2024-07-30T17:30:20.300Z,121817.5,BMPNF2epqC,incremental,anketa,6645cf40bc81b65c5faccf1d,participant,hcpib7dulz8oyvjr,,,,,Stare su samo Čehovljeve priče bile u ovoj knjižnici..,Samo su Čehovljeve priče bile stare u ovoj knjižnici..,di,35,35,33,,,
,context,canvas.Screen,2_3_0_0,,,,,,response,1784.9000000953674,121802,121804.1,121817.5,123602.40000009537,123603.30000019073,2024-07-30T17:30:22.101Z,123618.2,BMPNF2epqC,incremental,anketa,6645cf40bc81b65c5faccf1d,participant,hcpib7dulz8oyvjr,,,click,,Što Miloš je opljačkao banku da kupi?,Miloš je opljačkao banku da kupi kuću.,ai,,,20,,,
,Timer frame,html.Frame,2_3_0,,,,,,,1785.8000001907349,121801.90000009537,121804.1,121817.5,123603.30000019073,123603.40000009537,2024-07-30T17:30:22.101Z,123618.2,BMPNF2epqC,incremental,anketa,6645cf40bc81b65c5faccf1d,participant,hcpib7dulz8oyvjr,,,,,Što Miloš je opljačkao banku da kupi?,Miloš je opljačkao banku da kupi kuću.,ai,,,20,,,
,stimulus,canvas.Screen,2_3_1_0,,,,,,response,6036.400000143054,123603.5,123604.8,123618.2,129654.60000014305,129655.10000014305,2024-07-30T17:30:28.153Z,129660.2,BMPNF2epqC,incremental,anketa,6645cf40bc81b65c5faccf1d,participant,hcpib7dulz8oyvjr,,4,click @4,,Što Miloš je opljačkao banku da kupi?,Miloš je opljačkao banku da kupi kuću.,ai,,,20,,,
,Timer frame,html.Frame,2_3_1,,,,,,,6037.000000047687,123603.40000009537,123604.8,123618.2,129655.20000004768,129655.20000004768,2024-07-30T17:30:28.153Z,129660.2,BMPNF2epqC,incremental,anketa,6645cf40bc81b65c5faccf1d,participant,hcpib7dulz8oyvjr,,,,,Što Miloš je opljačkao banku da kupi?,Miloš je opljačkao banku da kupi kuću.,ai,,,20,,,
,Spremanje,canvas.Screen,2_3_2,,,,,,skipped,,129655.30000019073,,,129655.20000004768,129655.30000019073,2024-07-30T17:30:28.153Z,129660.2,BMPNF2epqC,incremental,anketa,6645cf40bc81b65c5faccf1d,participant,hcpib7dulz8oyvjr,,,,,Što Miloš je opljačkao banku da kupi?,Miloš je opljačkao banku da kupi kuću.,ai,,,20,,,
,Question form,html.Form,2_3_3,,,,,,skipped,,129655.40000009537,,,129655.20000004768,129655.5,2024-07-30T17:30:28.153Z,129660.2,BMPNF2epqC,incremental,anketa,6645cf40bc81b65c5faccf1d,participant,hcpib7dulz8oyvjr,,,,,Što Miloš je opljačkao banku da kupi?,Miloš je opljačkao banku da kupi kuću.,ai,,,20,,,
,Answer indication,canvas.Screen,2_3_4,,,,,,skipped,,129655.70000004768,,,129655.20000004768,129655.80000019073,2024-07-30T17:30:28.154Z,129660.2,BMPNF2epqC,incremental,anketa,6645cf40bc81b65c5faccf1d,participant,hcpib7dulz8oyvjr,,,,,Što Miloš je opljačkao banku da kupi?,Miloš je opljačkao banku da kupi kuću.,ai,,,20,,,
,inter-stimulus,canvas.Screen,2_3_5,,,,,,response,2277.600000190738,129655.80000019073,129657.098,129660.2,131937.80000019073,131939.30000019073,2024-07-30T17:30:30.437Z,131941.1,BMPNF2epqC,incremental,anketa,6645cf40bc81b65c5faccf1d,participant,hcpib7dulz8oyvjr,,,mousedown,,Što Miloš je opljačkao banku da kupi?,Miloš je opljačkao banku da kupi kuću.,ai,,,20,,,
,Sequence,flow.Sequence,2_3,,,,,,completion,10120.300000190735,121801.90000009537,121804.1,121817.5,131937.80000019073,131939.40000009537,2024-07-30T17:30:30.437Z,131941.1,BMPNF2epqC,incremental,anketa,6645cf40bc81b65c5faccf1d,participant,hcpib7dulz8oyvjr,,,,,Što Miloš je opljačkao banku da kupi?,Miloš je opljačkao banku da kupi kuću.,ai,,,20,,,
,context,canvas.Screen,2_4_0_0,,,,,,response,4270.399999999994,131939.60000014305,131927.7,131941.1,136211.5,136212.20000004768,2024-07-30T17:30:34.710Z,136222.7,BMPNF2epqC,incremental,anketa,6645cf40bc81b65c5faccf1d,participant,hcpib7dulz8oyvjr,,,click,,"Što je kupio tata, i spremila je majka?","Tata je kupio meso, a majka je spremila salatu.",csi,,,7,,,
,Timer frame,html.Frame,2_4_0,,,,,,,4271.200000190729,131939.5,131927.7,131941.1,136212.30000019073,136212.40000009537,2024-07-30T17:30:34.710Z,136222.7,BMPNF2epqC,incremental,anketa,6645cf40bc81b65c5faccf1d,participant,hcpib7dulz8oyvjr,,,,,"Što je kupio tata, i spremila je majka?","Tata je kupio meso, a majka je spremila salatu.",csi,,,7,,,
,stimulus,canvas.Screen,2_4_1_0,,,,,,response,7003.700000095356,136212.5,136209.3,136222.7,143226.40000009537,143227.20000004768,2024-07-30T17:30:41.725Z,143238.4,BMPNF2epqC,incremental,anketa,6645cf40bc81b65c5faccf1d,participant,hcpib7dulz8oyvjr,,2,click @2,,"Što je kupio tata, i spremila je majka?","Tata je kupio meso, a majka je spremila salatu.",csi,,,7,,,
,Timer frame,html.Frame,2_4_1,,,,,,,7004.500000047672,136212.40000009537,136209.3,136222.7,143227.20000004768,143227.20000004768,2024-07-30T17:30:41.725Z,143238.4,BMPNF2epqC,incremental,anketa,6645cf40bc81b65c5faccf1d,participant,hcpib7dulz8oyvjr,,,,,"Što je kupio tata, i spremila je majka?","Tata je kupio meso, a majka je spremila salatu.",csi,,,7,,,
,Spremanje,canvas.Screen,2_4_2,,,,,,skipped,,143227.20000004768,,,143227.20000004768,143227.30000019073,2024-07-30T17:30:41.725Z,143238.4,BMPNF2epqC,incremental,anketa,6645cf40bc81b65c5faccf1d,participant,hcpib7dulz8oyvjr,,,,,"Što je kupio tata, i spremila je majka?","Tata je kupio meso, a majka je spremila salatu.",csi,,,7,,,
,Question form,html.Form,2_4_3,,,,,,skipped,,143227.30000019073,,,143227.20000004768,143227.30000019073,2024-07-30T17:30:41.725Z,143238.4,BMPNF2epqC,incremental,anketa,6645cf40bc81b65c5faccf1d,participant,hcpib7dulz8oyvjr,,,,,"Što je kupio tata, i spremila je majka?","Tata je kupio meso, a majka je spremila salatu.",csi,,,7,,,
,Answer indication,canvas.Screen,2_4_4,,,,,,skipped,,143227.80000019073,,,143227.20000004768,143227.80000019073,2024-07-30T17:30:41.726Z,143238.4,BMPNF2epqC,incremental,anketa,6645cf40bc81b65c5faccf1d,participant,hcpib7dulz8oyvjr,,,,,"Što je kupio tata, i spremila je majka?","Tata je kupio meso, a majka je spremila salatu.",csi,,,7,,,
,inter-stimulus,canvas.Screen,2_4_5,,,,,,response,1634.5000000953733,143227.80000019073,143225.2,143238.4,144872.90000009537,144874.60000014305,2024-07-30T17:30:43.373Z,144879,BMPNF2epqC,incremental,anketa,6645cf40bc81b65c5faccf1d,participant,hcpib7dulz8oyvjr,,,mousedown,,"Što je kupio tata, i spremila je majka?","Tata je kupio meso, a majka je spremila salatu.",csi,,,7,,,
,Sequence,flow.Sequence,2_4,,,,,,completion,12931.800000095362,131939.5,131927.7,131941.1,144872.90000009537,144874.80000019073,2024-07-30T17:30:43.373Z,144879,BMPNF2epqC,incremental,anketa,6645cf40bc81b65c5faccf1d,participant,hcpib7dulz8oyvjr,,,,,"Što je kupio tata, i spremila je majka?","Tata je kupio meso, a majka je spremila salatu.",csi,,,7,,,
,context,canvas.Screen,2_5_0_0,,,,,,response,2088.4000000953674,144875,144871.892,144879,146967.40000009537,146968.10000014305,2024-07-30T17:30:45.466Z,146973,BMPNF2epqC,incremental,anketa,6645cf40bc81b65c5faccf1d,participant,hcpib7dulz8oyvjr,,,click,,Čega je riješio taj misterij?,Riješio je taj misterij nestanka psa.,di,,,32,,,
,Timer frame,html.Frame,2_5_0,,,,,,,2089.2000000476837,144874.90000009537,144871.892,144879,146968.20000004768,146968.20000004768,2024-07-30T17:30:45.466Z,146973,BMPNF2epqC,incremental,anketa,6645cf40bc81b65c5faccf1d,participant,hcpib7dulz8oyvjr,,,,,Čega je riješio taj misterij?,Riješio je taj misterij nestanka psa.,di,,,32,,,
,stimulus,canvas.Screen,2_5_1_0,,,,,,response,3682.4000000953674,146968.40000009537,146969.698,146973,150655.40000009537,150656.70000004768,2024-07-30T17:30:49.155Z,150667.8,BMPNF2epqC,incremental,anketa,6645cf40bc81b65c5faccf1d,participant,hcpib7dulz8oyvjr,,2,click @2,,Čega je riješio taj misterij?,Riješio je taj misterij nestanka psa.,di,,,32,,,
,Timer frame,html.Frame,2_5_1,,,,,,,3683.9000000953674,146968.30000019073,146969.698,146973,150656.90000009537,150657,2024-07-30T17:30:49.155Z,150667.8,BMPNF2epqC,incremental,anketa,6645cf40bc81b65c5faccf1d,participant,hcpib7dulz8oyvjr,,,,,Čega je riješio taj misterij?,Riješio je taj misterij nestanka psa.,di,,,32,,,
,Spremanje,canvas.Screen,2_5_2,,,,,,skipped,,150657,,,150656.90000009537,150657,2024-07-30T17:30:49.155Z,150667.8,BMPNF2epqC,incremental,anketa,6645cf40bc81b65c5faccf1d,participant,hcpib7dulz8oyvjr,,,,,Čega je riješio taj misterij?,Riješio je taj misterij nestanka psa.,di,,,32,,,
,Question form,html.Form,2_5_3,,,,,,skipped,,150657,,,150656.90000009537,150657.10000014305,2024-07-30T17:30:49.155Z,150667.8,BMPNF2epqC,incremental,anketa,6645cf40bc81b65c5faccf1d,participant,hcpib7dulz8oyvjr,,,,,Čega je riješio taj misterij?,Riješio je taj misterij nestanka psa.,di,,,32,,,
,Answer indication,canvas.Screen,2_5_4,,,,,,skipped,,150657.5,,,150656.90000009537,150657.5,2024-07-30T17:30:49.155Z,150667.8,BMPNF2epqC,incremental,anketa,6645cf40bc81b65c5faccf1d,participant,hcpib7dulz8oyvjr,,,,,Čega je riješio taj misterij?,Riješio je taj misterij nestanka psa.,di,,,32,,,
,inter-stimulus,canvas.Screen,2_5_5,,,,,,response,1279.7000000000116,150657.60000014305,150654.5,150667.8,151947.5,151949,2024-07-30T17:30:50.447Z,151961.6,BMPNF2epqC,incremental,anketa,6645cf40bc81b65c5faccf1d,participant,hcpib7dulz8oyvjr,,,mousedown,,Čega je riješio taj misterij?,Riješio je taj misterij nestanka psa.,di,,,32,,,
,Sequence,flow.Sequence,2_5,,,,,,completion,7068.5,144874.80000019073,144871.892,144879,151947.5,151949.30000019073,2024-07-30T17:30:50.447Z,151961.6,BMPNF2epqC,incremental,anketa,6645cf40bc81b65c5faccf1d,participant,hcpib7dulz8oyvjr,,,,,Čega je riješio taj misterij?,Riješio je taj misterij nestanka psa.,di,,,32,,,
,context,canvas.Screen,2_6_0_0,,,,,,response,1770.8000000953616,151949.5,151948.4,151961.6,153732.40000009537,153733,2024-07-30T17:30:52.231Z,153748.9,BMPNF2epqC,incremental,anketa,6645cf40bc81b65c5faccf1d,participant,hcpib7dulz8oyvjr,,,click,,Što želiš da pronaći nije bilo teško?,Pronaći apoteku nije bilo teško.,si,,,14,,,2305
,Timer frame,html.Frame,2_6_0,,,,,,,1771.5000001430453,151949.40000009537,151948.4,151961.6,153733.10000014305,153733.20000004768,2024-07-30T17:30:52.231Z,153748.9,BMPNF2epqC,incremental,anketa,6645cf40bc81b65c5faccf1d,participant,hcpib7dulz8oyvjr,,,,,Što želiš da pronaći nije bilo teško?,Pronaći apoteku nije bilo teško.,si,,,14,,,2305
,stimulus,canvas.Screen,2_6_1_0,,,,,,response,2979.4000001907407,153733.20000004768,153735.6,153748.9,156728.30000019073,156729,2024-07-30T17:30:55.227Z,156749.9,BMPNF2epqC,incremental,anketa,6645cf40bc81b65c5faccf1d,participant,hcpib7dulz8oyvjr,,1,click @1,,Što želiš da pronaći nije bilo teško?,Pronaći apoteku nije bilo teško.,si,,,14,,,2305
,Timer frame,html.Frame,2_6_1,,,,,,,2980.100000000006,153733.20000004768,153735.6,153748.9,156729,156729.20000004768,2024-07-30T17:30:55.227Z,156749.9,BMPNF2epqC,incremental,anketa,6645cf40bc81b65c5faccf1d,participant,hcpib7dulz8oyvjr,,,,,Što želiš da pronaći nije bilo teško?,Pronaći apoteku nije bilo teško.,si,,,14,,,2305
,Spremanje,canvas.Screen,2_6_2,,,,,,skipped,,156729.20000004768,,,156729,156729.20000004768,2024-07-30T17:30:55.227Z,156749.9,BMPNF2epqC,incremental,anketa,6645cf40bc81b65c5faccf1d,participant,hcpib7dulz8oyvjr,,,,,Što želiš da pronaći nije bilo teško?,Pronaći apoteku nije bilo teško.,si,,,14,,,2305
,Question form,html.Form,2_6_3,,,,,,skipped,,156729.20000004768,,,156729,156729.30000019073,2024-07-30T17:30:55.227Z,156749.9,BMPNF2epqC,incremental,anketa,6645cf40bc81b65c5faccf1d,participant,hcpib7dulz8oyvjr,,,,,Što želiš da pronaći nije bilo teško?,Pronaći apoteku nije bilo teško.,si,,,14,,,2305
,Answer indication,canvas.Screen,2_6_4,,,,,,skipped,,156729.70000004768,,,156729,156729.80000019073,2024-07-30T17:30:55.228Z,156749.9,BMPNF2epqC,incremental,anketa,6645cf40bc81b65c5faccf1d,participant,hcpib7dulz8oyvjr,,,,,Što želiš da pronaći nije bilo teško?,Pronaći apoteku nije bilo teško.,si,,,14,,,2305
,inter-stimulus,canvas.Screen,2_6_5,,,,,,response,933.5000000953733,156729.80000019073,156736.5,156749.9,157683.40000009537,157684.90000009537,2024-07-30T17:30:56.183Z,157710.2,BMPNF2epqC,incremental,anketa,6645cf40bc81b65c5faccf1d,participant,hcpib7dulz8oyvjr,,,mousedown,,Što želiš da pronaći nije bilo teško?,Pronaći apoteku nije bilo teško.,si,,,14,,,2305
,Sequence,flow.Sequence,2_6,,,,,,completion,5721.800000095362,151949.30000019073,151948.4,151961.6,157683.40000009537,157685,2024-07-30T17:30:56.183Z,157710.2,BMPNF2epqC,incremental,anketa,6645cf40bc81b65c5faccf1d,participant,hcpib7dulz8oyvjr,,,,,Što želiš da pronaći nije bilo teško?,Pronaći apoteku nije bilo teško.,si,,,14,,,2305
,context,canvas.Screen,2_7_0_0,,,,,,response,3194.200000095356,157685.20000004768,157696.9,157710.2,160904.40000009537,160905.20000004768,2024-07-30T17:30:59.403Z,160911.4,BMPNF2epqC,incremental,anketa,6645cf40bc81b65c5faccf1d,participant,hcpib7dulz8oyvjr,,,click,,"Kamo je djevojka razmišljala o slobode, idući?","Djevojka je razmišljala o slobode, idući do mora.",ai,,,23,,,
,Timer frame,html.Frame,2_7_0,,,,,,,3195.000000047672,157685,157696.9,157710.2,160905.20000004768,160905.30000019073,2024-07-30T17:30:59.403Z,160911.4,BMPNF2epqC,incremental,anketa,6645cf40bc81b65c5faccf1d,participant,hcpib7dulz8oyvjr,,,,,"Kamo je djevojka razmišljala o slobode, idući?","Djevojka je razmišljala o slobode, idući do mora.",ai,,,23,,,
,stimulus,canvas.Screen,2_7_1_0,,,,,,response,2412.100000000006,160905.5,160901.466,160911.4,163323.5,163324.10000014305,2024-07-30T17:31:01.822Z,163338.9,BMPNF2epqC,incremental,anketa,6645cf40bc81b65c5faccf1d,participant,hcpib7dulz8oyvjr,,1,click @1,,"Kamo je djevojka razmišljala o slobode, idući?","Djevojka je razmišljala o slobode, idući do mora.",ai,,,23,,,
,Timer frame,html.Frame,2_7_1,,,,,,,2412.8000000476895,160905.40000009537,160901.466,160911.4,163324.20000004768,163324.20000004768,2024-07-30T17:31:01.822Z,163338.9,BMPNF2epqC,incremental,anketa,6645cf40bc81b65c5faccf1d,participant,hcpib7dulz8oyvjr,,,,,"Kamo je djevojka razmišljala o slobode, idući?","Djevojka je razmišljala o slobode, idući do mora.",ai,,,23,,,
,Spremanje,canvas.Screen,2_7_2,,,,,,skipped,,163324.30000019073,,,163324.20000004768,163324.30000019073,2024-07-30T17:31:01.822Z,163338.9,BMPNF2epqC,incremental,anketa,6645cf40bc81b65c5faccf1d,participant,hcpib7dulz8oyvjr,,,,,"Kamo je djevojka razmišljala o slobode, idući?","Djevojka je razmišljala o slobode, idući do mora.",ai,,,23,,,
,Question form,html.Form,2_7_3,,,,,,skipped,,163324.40000009537,,,163324.20000004768,163324.40000009537,2024-07-30T17:31:01.822Z,163338.9,BMPNF2epqC,incremental,anketa,6645cf40bc81b65c5faccf1d,participant,hcpib7dulz8oyvjr,,,,,"Kamo je djevojka razmišljala o slobode, idući?","Djevojka je razmišljala o slobode, idući do mora.",ai,,,23,,,
,Answer indication,canvas.Screen,2_7_4,,,,,,skipped,,163324.70000004768,,,163324.20000004768,163324.80000019073,2024-07-30T17:31:01.823Z,163338.9,BMPNF2epqC,incremental,anketa,6645cf40bc81b65c5faccf1d,participant,hcpib7dulz8oyvjr,,,,,"Kamo je djevojka razmišljala o slobode, idući?","Djevojka je razmišljala o slobode, idući do mora.",ai,,,23,,,
,inter-stimulus,canvas.Screen,2_7_5,,,,,,response,645.8000000476895,163324.90000009537,163325.6,163338.9,163984.70000004768,163990.20000004768,2024-07-30T17:31:02.489Z,164005.8,BMPNF2epqC,incremental,anketa,6645cf40bc81b65c5faccf1d,participant,hcpib7dulz8oyvjr,,,mousedown,,"Kamo je djevojka razmišljala o slobode, idući?","Djevojka je razmišljala o slobode, idući do mora.",ai,,,23,,,
,Sequence,flow.Sequence,2_7,,,,,,completion,6274.500000047672,157685,157696.9,157710.2,163984.70000004768,163990.90000009537,2024-07-30T17:31:02.489Z,164005.8,BMPNF2epqC,incremental,anketa,6645cf40bc81b65c5faccf1d,participant,hcpib7dulz8oyvjr,,,,,"Kamo je djevojka razmišljala o slobode, idući?","Djevojka je razmišljala o slobode, idući do mora.",ai,,,23,,,
,context,canvas.Screen,2_8_0_0,,,,,,response,2459.600000095379,163991.90000009537,163992.5,164005.8,166465.40000009537,166466,2024-07-30T17:31:04.965Z,166473.3,BMPNF2epqC,incremental,anketa,6645cf40bc81b65c5faccf1d,participant,hcpib7dulz8oyvjr,,,click,,Što je Inna tri sata pročitala?,Inna je tri sata čitala zanimljiv članak.,nf,,,39,,,
,Timer frame,html.Frame,2_8_0,,,,,,,2460.2000000000116,163991.20000004768,163992.5,164005.8,166466,166466.20000004768,2024-07-30T17:31:04.965Z,166473.3,BMPNF2epqC,incremental,anketa,6645cf40bc81b65c5faccf1d,participant,hcpib7dulz8oyvjr,,,,,Što je Inna tri sata pročitala?,Inna je tri sata čitala zanimljiv članak.,nf,,,39,,,
,stimulus,canvas.Screen,2_8_1_0,,,,,,response,2429.100000095379,166466.30000019073,166460,166473.3,168902.40000009537,168903,2024-07-30T17:31:07.402Z,168927.6,BMPNF2epqC,incremental,anketa,6645cf40bc81b65c5faccf1d,participant,hcpib7dulz8oyvjr,,1,click @1,,Što je Inna tri sata pročitala?,Inna je tri sata čitala zanimljiv članak.,nf,,,39,,,
,Timer frame,html.Frame,2_8_1,,,,,,,2429.800000143063,166466.20000004768,166460,166473.3,168903.10000014305,168903.10000014305,2024-07-30T17:31:07.402Z,168927.6,BMPNF2epqC,incremental,anketa,6645cf40bc81b65c5faccf1d,participant,hcpib7dulz8oyvjr,,,,,Što je Inna tri sata pročitala?,Inna je tri sata čitala zanimljiv članak.,nf,,,39,,,
,Spremanje,canvas.Screen,2_8_2,,,,,,skipped,,168903.20000004768,,,168903.10000014305,168903.20000004768,2024-07-30T17:31:07.402Z,168927.6,BMPNF2epqC,incremental,anketa,6645cf40bc81b65c5faccf1d,participant,hcpib7dulz8oyvjr,,,,,Što je Inna tri sata pročitala?,Inna je tri sata čitala zanimljiv članak.,nf,,,39,,,
,Question form,html.Form,2_8_3,,,,,,skipped,,168903.30000019073,,,168903.10000014305,168903.30000019073,2024-07-30T17:31:07.402Z,168927.6,BMPNF2epqC,incremental,anketa,6645cf40bc81b65c5faccf1d,participant,hcpib7dulz8oyvjr,,,,,Što je Inna tri sata pročitala?,Inna je tri sata čitala zanimljiv članak.,nf,,,39,,,
,Answer indication,canvas.Screen,2_8_4,,,,,,skipped,,168903.80000019073,,,168903.10000014305,168903.80000019073,2024-07-30T17:31:07.402Z,168927.6,BMPNF2epqC,incremental,anketa,6645cf40bc81b65c5faccf1d,participant,hcpib7dulz8oyvjr,,,,,Što je Inna tri sata pročitala?,Inna je tri sata čitala zanimljiv članak.,nf,,,39,,,
,inter-stimulus,canvas.Screen,2_8_5,,,,,,response,1862.3000000953616,168903.80000019073,168914.3,168927.6,170789.90000009537,170794.40000009537,2024-07-30T17:31:09.293Z,170808.3,BMPNF2epqC,incremental,anketa,6645cf40bc81b65c5faccf1d,participant,hcpib7dulz8oyvjr,,,mousedown,,Što je Inna tri sata pročitala?,Inna je tri sata čitala zanimljiv članak.,nf,,,39,,,
,Sequence,flow.Sequence,2_8,,,,,,completion,6784.100000095379,163991.10000014305,163992.5,164005.8,170789.90000009537,170794.80000019073,2024-07-30T17:31:09.293Z,170808.3,BMPNF2epqC,incremental,anketa,6645cf40bc81b65c5faccf1d,participant,hcpib7dulz8oyvjr,,,,,Što je Inna tri sata pročitala?,Inna je tri sata čitala zanimljiv članak.,nf,,,39,,,
,context,canvas.Screen,2_9_0_0,,,,,,response,2509.100000095379,170796.40000009537,170797.818,170808.3,173317.40000009537,173318.10000014305,2024-07-30T17:31:11.817Z,173342.4,BMPNF2epqC,incremental,anketa,6645cf40bc81b65c5faccf1d,participant,hcpib7dulz8oyvjr,,,click,,Lijepe su samo crne čizme bile u ovom ormaru.,Samo su crne čizme bile lijepe stvari u ovom ormaru.,di,,,34,CRNA; CRNE; CRNI; CRNO; CRN,Boja cipela je?,
,Timer frame,html.Frame,2_9_0,,,,,,,2509.800000143063,170795.70000004768,170797.818,170808.3,173318.10000014305,173318.20000004768,2024-07-30T17:31:11.817Z,173342.4,BMPNF2epqC,incremental,anketa,6645cf40bc81b65c5faccf1d,participant,hcpib7dulz8oyvjr,,,,,Lijepe su samo crne čizme bile u ovom ormaru.,Samo su crne čizme bile lijepe stvari u ovom ormaru.,di,,,34,CRNA; CRNE; CRNI; CRNO; CRN,Boja cipela je?,
,stimulus,canvas.Screen,2_9_1_0,,,,,,response,3864.0000000953733,173318.40000009537,173329.1,173342.4,177206.40000009537,177206.90000009537,2024-07-30T17:31:15.706Z,177223.8,BMPNF2epqC,incremental,anketa,6645cf40bc81b65c5faccf1d,participant,hcpib7dulz8oyvjr,,7,click @7,,Lijepe su samo crne čizme bile u ovom ormaru.,Samo su crne čizme bile lijepe stvari u ovom ormaru.,di,,,34,CRNA; CRNE; CRNI; CRNO; CRN,Boja cipela je?,
,Timer frame,html.Frame,2_9_1,,,,,,,3864.700000143057,173318.30000019073,173329.1,173342.4,177207.10000014305,177207.10000014305,2024-07-30T17:31:15.706Z,177223.8,BMPNF2epqC,incremental,anketa,6645cf40bc81b65c5faccf1d,participant,hcpib7dulz8oyvjr,,,,,Lijepe su samo crne čizme bile u ovom ormaru.,Samo su crne čizme bile lijepe stvari u ovom ormaru.,di,,,34,CRNA; CRNE; CRNI; CRNO; CRN,Boja cipela je?,
,Spremanje,canvas.Screen,2_9_2,,,,,,response,2196.2000000000116,177207.20000004768,177210.4,177223.8,179420,179424.60000014305,2024-07-30T17:31:17.923Z,179438,BMPNF2epqC,incremental,anketa,6645cf40bc81b65c5faccf1d,participant,hcpib7dulz8oyvjr,,,mousedown,,Lijepe su samo crne čizme bile u ovom ormaru.,Samo su crne čizme bile lijepe stvari u ovom ormaru.,di,,,34,CRNA; CRNE; CRNI; CRNO; CRN,Boja cipela je?,
,Question form,html.Form,2_9_3,,,,,,form submission,4289.700000047684,179425.70000004768,179424.664,179438,183727.70000004768,183727.80000019073,2024-07-30T17:31:22.226Z,183732.9,BMPNF2epqC,incremental,anketa,6645cf40bc81b65c5faccf1d,participant,hcpib7dulz8oyvjr,,,,Crne,Lijepe su samo crne čizme bile u ovom ormaru.,Samo su crne čizme bile lijepe stvari u ovom ormaru.,di,,,34,CRNA; CRNE; CRNI; CRNO; CRN,Boja cipela je?,
,Answer indication,canvas.Screen,2_9_4,,,,,,response,999.200000143057,183728.20000004768,183722.794,183732.9,184732.10000014305,184735.70000004768,2024-07-30T17:31:23.234Z,184747.2,BMPNF2epqC,incremental,anketa,6645cf40bc81b65c5faccf1d,participant,hcpib7dulz8oyvjr,,,mousedown,,Lijepe su samo crne čizme bile u ovom ormaru.,Samo su crne čizme bile lijepe stvari u ovom ormaru.,di,,,34,CRNA; CRNE; CRNI; CRNO; CRN,Boja cipela je?,
,inter-stimulus,canvas.Screen,2_9_5,,,,,,response,1596.7000000953558,184735.90000009537,184733.12,184747.2,186343.90000009537,186348.70000004768,2024-07-30T17:31:24.847Z,186360.4,BMPNF2epqC,incremental,anketa,6645cf40bc81b65c5faccf1d,participant,hcpib7dulz8oyvjr,,,mousedown,,Lijepe su samo crne čizme bile u ovom ormaru.,Samo su crne čizme bile lijepe stvari u ovom ormaru.,di,,,34,CRNA; CRNE; CRNI; CRNO; CRN,Boja cipela je?,
,Sequence,flow.Sequence,2_9,,,,,,completion,15535.600000095379,170795.70000004768,170797.818,170808.3,186343.90000009537,186349.30000019073,2024-07-30T17:31:24.848Z,186360.4,BMPNF2epqC,incremental,anketa,6645cf40bc81b65c5faccf1d,participant,hcpib7dulz8oyvjr,,,,,Lijepe su samo crne čizme bile u ovom ormaru.,Samo su crne čizme bile lijepe stvari u ovom ormaru.,di,,,34,CRNA; CRNE; CRNI; CRNO; CRN,Boja cipela je?,
,context,canvas.Screen,2_10_0_0,,,,,,response,3152.0000000953733,186350.40000009537,186350.43,186360.4,189512.40000009537,189513.10000014305,2024-07-30T17:31:28.012Z,189521.5,BMPNF2epqC,incremental,anketa,6645cf40bc81b65c5faccf1d,participant,hcpib7dulz8oyvjr,,,click,,Što bismo voljeli da Drago napravi bez prigovora??,Voljeli bismo da Drago opere auto bez prigovora..,si,26,22,16,,,
,Timer frame,html.Frame,2_10_0,,,,,,,3152.9000001907407,186349.70000004768,186350.43,186360.4,189513.30000019073,189513.30000019073,2024-07-30T17:31:28.012Z,189521.5,BMPNF2epqC,incremental,anketa,6645cf40bc81b65c5faccf1d,participant,hcpib7dulz8oyvjr,,,,,Što bismo voljeli da Drago napravi bez prigovora??,Voljeli bismo da Drago opere auto bez prigovora..,si,26,22,16,,,
,stimulus,canvas.Screen,2_10_1_0,,,,,,response,2882.9000000953674,189513.40000009537,189508.3,189521.5,192404.40000009537,192405,2024-07-30T17:31:30.904Z,192415.9,BMPNF2epqC,incremental,anketa,6645cf40bc81b65c5faccf1d,participant,hcpib7dulz8oyvjr,,7,click @7,,Što bismo voljeli da Drago napravi bez prigovora??,Voljeli bismo da Drago opere auto bez prigovora..,si,26,22,16,,,
,Timer frame,html.Frame,2_10_1,,,,,,,2883.600000143051,189513.30000019073,189508.3,189521.5,192405.10000014305,192405.20000004768,2024-07-30T17:31:30.904Z,192415.9,BMPNF2epqC,incremental,anketa,6645cf40bc81b65c5faccf1d,participant,hcpib7dulz8oyvjr,,,,,Što bismo voljeli da Drago napravi bez prigovora??,Voljeli bismo da Drago opere auto bez prigovora..,si,26,22,16,,,
,Spremanje,canvas.Screen,2_10_2,,,,,,skipped,,192405.30000019073,,,192405.10000014305,192405.30000019073,2024-07-30T17:31:30.904Z,192415.9,BMPNF2epqC,incremental,anketa,6645cf40bc81b65c5faccf1d,participant,hcpib7dulz8oyvjr,,,,,Što bismo voljeli da Drago napravi bez prigovora??,Voljeli bismo da Drago opere auto bez prigovora..,si,26,22,16,,,
,Question form,html.Form,2_10_3,,,,,,skipped,,192405.30000019073,,,192405.10000014305,192405.40000009537,2024-07-30T17:31:30.904Z,192415.9,BMPNF2epqC,incremental,anketa,6645cf40bc81b65c5faccf1d,participant,hcpib7dulz8oyvjr,,,,,Što bismo voljeli da Drago napravi bez prigovora??,Voljeli bismo da Drago opere auto bez prigovora..,si,26,22,16,,,
,Answer indication,canvas.Screen,2_10_4,,,,,,skipped,,192405.80000019073,,,192405.10000014305,192405.80000019073,2024-07-30T17:31:30.904Z,192415.9,BMPNF2epqC,incremental,anketa,6645cf40bc81b65c5faccf1d,participant,hcpib7dulz8oyvjr,,,,,Što bismo voljeli da Drago napravi bez prigovora??,Voljeli bismo da Drago opere auto bez prigovora..,si,26,22,16,,,
,inter-stimulus,canvas.Screen,2_10_5,,,,,,response,1602.4000001907407,192405.80000019073,192402.6,192415.9,194018.30000019073,194019.80000019073,2024-07-30T17:31:32.518Z,194029.9,BMPNF2epqC,incremental,anketa,6645cf40bc81b65c5faccf1d,participant,hcpib7dulz8oyvjr,,,mousedown,,Što bismo voljeli da Drago napravi bez prigovora??,Voljeli bismo da Drago opere auto bez prigovora..,si,26,22,16,,,
,Sequence,flow.Sequence,2_10,,,,,,completion,7657.900000190741,186349.60000014305,186350.43,186360.4,194018.30000019073,194019.90000009537,2024-07-30T17:31:32.518Z,194029.9,BMPNF2epqC,incremental,anketa,6645cf40bc81b65c5faccf1d,participant,hcpib7dulz8oyvjr,,,,,Što bismo voljeli da Drago napravi bez prigovora??,Voljeli bismo da Drago opere auto bez prigovora..,si,26,22,16,,,
,context,canvas.Screen,2_11_0_0,,,,,,response,2746.600000000006,194020.10000014305,194016.1,194029.9,196776.5,196777.20000004768,2024-07-30T17:31:35.276Z,196777.5,BMPNF2epqC,incremental,anketa,6645cf40bc81b65c5faccf1d,participant,hcpib7dulz8oyvjr,,,click,,Vidimo plažu od koje smo bili daleko.,Vidimo plažu od koje smo bili daleko.,ai,,,25,,,
,Timer frame,html.Frame,2_11_0,,,,,,,2747.3000000476895,194020,194016.1,194029.9,196777.20000004768,196777.30000019073,2024-07-30T17:31:35.276Z,196777.5,BMPNF2epqC,incremental,anketa,6645cf40bc81b65c5faccf1d,participant,hcpib7dulz8oyvjr,,,,,Vidimo plažu od koje smo bili daleko.,Vidimo plažu od koje smo bili daleko.,ai,,,25,,,
,stimulus,canvas.Screen,2_11_1_0,,,,,,response,3385,196777.40000009537,196767.566,196777.5,200162.5,200163.20000004768,2024-07-30T17:31:38.662Z,200165.3,BMPNF2epqC,incremental,anketa,6645cf40bc81b65c5faccf1d,participant,hcpib7dulz8oyvjr,,7,click @7,,Vidimo plažu od koje smo bili daleko.,Vidimo plažu od koje smo bili daleko.,ai,,,25,,,
,Timer frame,html.Frame,2_11_1,,,,,,,3385.7000000476837,196777.30000019073,196767.566,196777.5,200163.20000004768,200163.30000019073,2024-07-30T17:31:38.662Z,200165.3,BMPNF2epqC,incremental,anketa,6645cf40bc81b65c5faccf1d,participant,hcpib7dulz8oyvjr,,,,,Vidimo plažu od koje smo bili daleko.,Vidimo plažu od koje smo bili daleko.,ai,,,25,,,
,Spremanje,canvas.Screen,2_11_2,,,,,,skipped,,200163.40000009537,,,200163.20000004768,200163.40000009537,2024-07-30T17:31:38.662Z,200165.3,BMPNF2epqC,incremental,anketa,6645cf40bc81b65c5faccf1d,participant,hcpib7dulz8oyvjr,,,,,Vidimo plažu od koje smo bili daleko.,Vidimo plažu od koje smo bili daleko.,ai,,,25,,,
,Question form,html.Form,2_11_3,,,,,,skipped,,200163.40000009537,,,200163.20000004768,200163.40000009537,2024-07-30T17:31:38.662Z,200165.3,BMPNF2epqC,incremental,anketa,6645cf40bc81b65c5faccf1d,participant,hcpib7dulz8oyvjr,,,,,Vidimo plažu od koje smo bili daleko.,Vidimo plažu od koje smo bili daleko.,ai,,,25,,,
,Answer indication,canvas.Screen,2_11_4,,,,,,skipped,,200163.80000019073,,,200163.20000004768,200163.80000019073,2024-07-30T17:31:38.662Z,200165.3,BMPNF2epqC,incremental,anketa,6645cf40bc81b65c5faccf1d,participant,hcpib7dulz8oyvjr,,,,,Vidimo plažu od koje smo bili daleko.,Vidimo plažu od koje smo bili daleko.,ai,,,25,,,
,inter-stimulus,canvas.Screen,2_11_5,,,,,,response,811.8000001430628,200163.80000019073,200161.998,200165.3,200977.10000014305,200978.80000019073,2024-07-30T17:31:39.477Z,200992.3,BMPNF2epqC,incremental,anketa,6645cf40bc81b65c5faccf1d,participant,hcpib7dulz8oyvjr,,,mousedown,,Vidimo plažu od koje smo bili daleko.,Vidimo plažu od koje smo bili daleko.,ai,,,25,,,
,Sequence,flow.Sequence,2_11,,,,,,completion,6947.200000143057,194020,194016.1,194029.9,200977.10000014305,200979.30000019073,2024-07-30T17:31:39.478Z,200992.3,BMPNF2epqC,incremental,anketa,6645cf40bc81b65c5faccf1d,participant,hcpib7dulz8oyvjr,,,,,Vidimo plažu od koje smo bili daleko.,Vidimo plažu od koje smo bili daleko.,ai,,,25,,,
,context,canvas.Screen,2_12_0_0,,,,,,response,3272.100000095379,200979.5,200978.9,200992.3,204264.40000009537,204265.10000014305,2024-07-30T17:31:42.764Z,204273.4,BMPNF2epqC,incremental,anketa,6645cf40bc81b65c5faccf1d,participant,hcpib7dulz8oyvjr,,,click,,Tko se zaljubio u djevojku kad je bio dijete?,"Kad smo bili djeca, moj prijatelj i ja smo se zaljubili u istu djevojku..",gf,,33,52,,,
,Timer frame,html.Frame,2_12_0,,,,,,,3272.800000143063,200979.40000009537,200978.9,200992.3,204265.10000014305,204265.10000014305,2024-07-30T17:31:42.764Z,204273.4,BMPNF2epqC,incremental,anketa,6645cf40bc81b65c5faccf1d,participant,hcpib7dulz8oyvjr,,,,,Tko se zaljubio u djevojku kad je bio dijete?,"Kad smo bili djeca, moj prijatelj i ja smo se zaljubili u istu djevojku..",gf,,33,52,,,
,stimulus,canvas.Screen,2_12_1_0,,,,,,response,3471.9000001907407,204265.20000004768,204263.43,204273.4,207745.30000019073,207746,2024-07-30T17:31:46.245Z,207754.6,BMPNF2epqC,incremental,anketa,6645cf40bc81b65c5faccf1d,participant,hcpib7dulz8oyvjr,,7,click @7,,Tko se zaljubio u djevojku kad je bio dijete?,"Kad smo bili djeca, moj prijatelj i ja smo se zaljubili u istu djevojku..",gf,,33,52,,,
,Timer frame,html.Frame,2_12_1,,,,,,,3472.700000143057,204265.10000014305,204263.43,204273.4,207746.10000014305,207746.10000014305,2024-07-30T17:31:46.245Z,207754.6,BMPNF2epqC,incremental,anketa,6645cf40bc81b65c5faccf1d,participant,hcpib7dulz8oyvjr,,,,,Tko se zaljubio u djevojku kad je bio dijete?,"Kad smo bili djeca, moj prijatelj i ja smo se zaljubili u istu djevojku..",gf,,33,52,,,
,Spremanje,canvas.Screen,2_12_2,,,,,,skipped,,207746.20000004768,,,207746.10000014305,207746.20000004768,2024-07-30T17:31:46.245Z,207754.6,BMPNF2epqC,incremental,anketa,6645cf40bc81b65c5faccf1d,participant,hcpib7dulz8oyvjr,,,,,Tko se zaljubio u djevojku kad je bio dijete?,"Kad smo bili djeca, moj prijatelj i ja smo se zaljubili u istu djevojku..",gf,,33,52,,,
,Question form,html.Form,2_12_3,,,,,,skipped,,207746.20000004768,,,207746.10000014305,207746.30000019073,2024-07-30T17:31:46.245Z,207754.6,BMPNF2epqC,incremental,anketa,6645cf40bc81b65c5faccf1d,participant,hcpib7dulz8oyvjr,,,,,Tko se zaljubio u djevojku kad je bio dijete?,"Kad smo bili djeca, moj prijatelj i ja smo se zaljubili u istu djevojku..",gf,,33,52,,,
,Answer indication,canvas.Screen,2_12_4,,,,,,skipped,,207746.70000004768,,,207746.10000014305,207746.70000004768,2024-07-30T17:31:46.245Z,207754.6,BMPNF2epqC,incremental,anketa,6645cf40bc81b65c5faccf1d,participant,hcpib7dulz8oyvjr,,,,,Tko se zaljubio u djevojku kad je bio dijete?,"Kad smo bili djeca, moj prijatelj i ja smo se zaljubili u istu djevojku..",gf,,33,52,,,
,inter-stimulus,canvas.Screen,2_12_5,,,,,,response,411.20000019072904,207746.80000019073,207741.3,207754.6,208165.80000019073,208167.10000014305,2024-07-30T17:31:46.666Z,208181.5,BMPNF2epqC,incremental,anketa,6645cf40bc81b65c5faccf1d,participant,hcpib7dulz8oyvjr,,,mousedown,,Tko se zaljubio u djevojku kad je bio dijete?,"Kad smo bili djeca, moj prijatelj i ja smo se zaljubili u istu djevojku..",gf,,33,52,,,
,Sequence,flow.Sequence,2_12,,,,,,completion,7173.5000001907465,200979.30000019073,200978.9,200992.3,208165.80000019073,208167.30000019073,2024-07-30T17:31:46.666Z,208181.5,BMPNF2epqC,incremental,anketa,6645cf40bc81b65c5faccf1d,participant,hcpib7dulz8oyvjr,,,,,Tko se zaljubio u djevojku kad je bio dijete?,"Kad smo bili djeca, moj prijatelj i ja smo se zaljubili u istu djevojku..",gf,,33,52,,,
,context,canvas.Screen,2_13_0_0,,,,,,response,3618.800000190735,208167.30000019073,208168.1,208181.5,211800.30000019073,211800.90000009537,2024-07-30T17:31:50.300Z,211822.7,BMPNF2epqC,incremental,anketa,6645cf40bc81b65c5faccf1d,participant,hcpib7dulz8oyvjr,,,click,,Za koliko novca nevjerojatno je da je Goran prodao svoj stan??,Ono da je Goran prodao svoj stan za toliki novac nevjerojatno je..,si,31,32,18,,,
,Timer frame,html.Frame,2_13_0,,,,,,,3619.5,208167.30000019073,208168.1,208181.5,211801,211801,2024-07-30T17:31:50.300Z,211822.7,BMPNF2epqC,incremental,anketa,6645cf40bc81b65c5faccf1d,participant,hcpib7dulz8oyvjr,,,,,Za koliko novca nevjerojatno je da je Goran prodao svoj stan??,Ono da je Goran prodao svoj stan za toliki novac nevjerojatno je..,si,31,32,18,,,
,stimulus,canvas.Screen,2_13_1_0,,,,,,response,3990.600000190723,211801.20000004768,211809.4,211822.7,215813.30000019073,215813.90000009537,2024-07-30T17:31:54.313Z,215824.2,BMPNF2epqC,incremental,anketa,6645cf40bc81b65c5faccf1d,participant,hcpib7dulz8oyvjr,,1,click @1,,Za koliko novca nevjerojatno je da je Goran prodao svoj stan??,Ono da je Goran prodao svoj stan za toliki novac nevjerojatno je..,si,31,32,18,,,
,Timer frame,html.Frame,2_13_1,,,,,,,3991.4000001430395,211801.10000014305,211809.4,211822.7,215814.10000014305,215814.10000014305,2024-07-30T17:31:54.313Z,215824.2,BMPNF2epqC,incremental,anketa,6645cf40bc81b65c5faccf1d,participant,hcpib7dulz8oyvjr,,,,,Za koliko novca nevjerojatno je da je Goran prodao svoj stan??,Ono da je Goran prodao svoj stan za toliki novac nevjerojatno je..,si,31,32,18,,,
,Spremanje,canvas.Screen,2_13_2,,,,,,skipped,,215814.20000004768,,,215814.10000014305,215814.20000004768,2024-07-30T17:31:54.313Z,215824.2,BMPNF2epqC,incremental,anketa,6645cf40bc81b65c5faccf1d,participant,hcpib7dulz8oyvjr,,,,,Za koliko novca nevjerojatno je da je Goran prodao svoj stan??,Ono da je Goran prodao svoj stan za toliki novac nevjerojatno je..,si,31,32,18,,,
,Question form,html.Form,2_13_3,,,,,,skipped,,215814.20000004768,,,215814.10000014305,215814.30000019073,2024-07-30T17:31:54.313Z,215824.2,BMPNF2epqC,incremental,anketa,6645cf40bc81b65c5faccf1d,participant,hcpib7dulz8oyvjr,,,,,Za koliko novca nevjerojatno je da je Goran prodao svoj stan??,Ono da je Goran prodao svoj stan za toliki novac nevjerojatno je..,si,31,32,18,,,
,Answer indication,canvas.Screen,2_13_4,,,,,,skipped,,215814.80000019073,,,215814.10000014305,215814.80000019073,2024-07-30T17:31:54.313Z,215824.2,BMPNF2epqC,incremental,anketa,6645cf40bc81b65c5faccf1d,participant,hcpib7dulz8oyvjr,,,,,Za koliko novca nevjerojatno je da je Goran prodao svoj stan??,Ono da je Goran prodao svoj stan za toliki novac nevjerojatno je..,si,31,32,18,,,
,inter-stimulus,canvas.Screen,2_13_5,,,,,,response,2071.700000095356,215814.80000019073,215810.9,215824.2,217895.90000009537,217897.20000004768,2024-07-30T17:31:56.396Z,217904.9,BMPNF2epqC,incremental,anketa,6645cf40bc81b65c5faccf1d,participant,hcpib7dulz8oyvjr,,,mousedown,,Za koliko novca nevjerojatno je da je Goran prodao svoj stan??,Ono da je Goran prodao svoj stan za toliki novac nevjerojatno je..,si,31,32,18,,,
,Sequence,flow.Sequence,2_13,,,,,,completion,9714.400000095367,208167.30000019073,208168.1,208181.5,217895.90000009537,217897.30000019073,2024-07-30T17:31:56.396Z,217904.9,BMPNF2epqC,incremental,anketa,6645cf40bc81b65c5faccf1d,participant,hcpib7dulz8oyvjr,,,,,Za koliko novca nevjerojatno je da je Goran prodao svoj stan??,Ono da je Goran prodao svoj stan za toliki novac nevjerojatno je..,si,31,32,18,,,
,context,canvas.Screen,2_14_0_0,,,,,,response,2024.6000000000058,217897.5,217894.31,217904.9,219929.5,219930.20000004768,2024-07-30T17:31:58.429Z,219932.6,BMPNF2epqC,incremental,anketa,6645cf40bc81b65c5faccf1d,participant,hcpib7dulz8oyvjr,,,click,,Za kim su banditi imali pitanja?,Ti banditi su imali pitanja za mene.,nf,,,40,,,
,Timer frame,html.Frame,2_14_0,,,,,,,2025.3000000476895,217897.40000009537,217894.31,217904.9,219930.20000004768,219930.30000019073,2024-07-30T17:31:58.429Z,219932.6,BMPNF2epqC,incremental,anketa,6645cf40bc81b65c5faccf1d,participant,hcpib7dulz8oyvjr,,,,,Za kim su banditi imali pitanja?,Ti banditi su imali pitanja za mene.,nf,,,40,,,
,stimulus,canvas.Screen,2_14_1_0,,,,,,response,2737.8000000953616,219930.5,219922.366,219932.6,222670.40000009537,222678.20000004768,2024-07-30T17:32:01.177Z,222693.3,BMPNF2epqC,incremental,anketa,6645cf40bc81b65c5faccf1d,participant,hcpib7dulz8oyvjr,,1,click @1,,Za kim su banditi imali pitanja?,Ti banditi su imali pitanja za mene.,nf,,,40,,,
,Timer frame,html.Frame,2_14_1,,,,,,,2745.700000190729,219930.30000019073,219922.366,219932.6,222678.30000019073,222678.40000009537,2024-07-30T17:32:01.177Z,222693.3,BMPNF2epqC,incremental,anketa,6645cf40bc81b65c5faccf1d,participant,hcpib7dulz8oyvjr,,,,,Za kim su banditi imali pitanja?,Ti banditi su imali pitanja za mene.,nf,,,40,,,
,Spremanje,canvas.Screen,2_14_2,,,,,,skipped,,222678.40000009537,,,222678.30000019073,222678.5,2024-07-30T17:32:01.177Z,222693.3,BMPNF2epqC,incremental,anketa,6645cf40bc81b65c5faccf1d,participant,hcpib7dulz8oyvjr,,,,,Za kim su banditi imali pitanja?,Ti banditi su imali pitanja za mene.,nf,,,40,,,
,Question form,html.Form,2_14_3,,,,,,skipped,,222678.5,,,222678.30000019073,222678.60000014305,2024-07-30T17:32:01.177Z,222693.3,BMPNF2epqC,incremental,anketa,6645cf40bc81b65c5faccf1d,participant,hcpib7dulz8oyvjr,,,,,Za kim su banditi imali pitanja?,Ti banditi su imali pitanja za mene.,nf,,,40,,,
,Answer indication,canvas.Screen,2_14_4,,,,,,skipped,,222679.10000014305,,,222678.30000019073,222679.20000004768,2024-07-30T17:32:01.178Z,222693.3,BMPNF2epqC,incremental,anketa,6645cf40bc81b65c5faccf1d,participant,hcpib7dulz8oyvjr,,,,,Za kim su banditi imali pitanja?,Ti banditi su imali pitanja za mene.,nf,,,40,,,
,inter-stimulus,canvas.Screen,2_14_5,,,,,,response,1170.600000095379,222679.30000019073,222683.266,222693.3,223863.90000009537,223866.60000014305,2024-07-30T17:32:02.365Z,223880.3,BMPNF2epqC,incremental,anketa,6645cf40bc81b65c5faccf1d,participant,hcpib7dulz8oyvjr,,,mousedown,,Za kim su banditi imali pitanja?,Ti banditi su imali pitanja za mene.,nf,,,40,,,
,Sequence,flow.Sequence,2_14,,,,,,completion,5959.000000095373,217897.40000009537,217894.31,217904.9,223863.90000009537,223867,2024-07-30T17:32:02.365Z,223880.3,BMPNF2epqC,incremental,anketa,6645cf40bc81b65c5faccf1d,participant,hcpib7dulz8oyvjr,,,,,Za kim su banditi imali pitanja?,Ti banditi su imali pitanja za mene.,nf,,,40,,,
,context,canvas.Screen,2_15_0_0,,,,,,response,2363.100000095379,223868.30000019073,223867,223880.3,226243.40000009537,226243.90000009537,2024-07-30T17:32:04.742Z,226254.5,BMPNF2epqC,incremental,anketa,6645cf40bc81b65c5faccf1d,participant,hcpib7dulz8oyvjr,,,click,,"To su oni siromasi, koje je htio nahraniti i moliti se bogu..",Hoće nahraniti siromahe i moliti se bogu.,csi,42,0,6,,,
,Timer frame,html.Frame,2_15_0,,,,,,,2363.7000000000116,223868,223867,223880.3,226244,226244,2024-07-30T17:32:04.742Z,226254.5,BMPNF2epqC,incremental,anketa,6645cf40bc81b65c5faccf1d,participant,hcpib7dulz8oyvjr,,,,,"To su oni siromasi, koje je htio nahraniti i moliti se bogu..",Hoće nahraniti siromahe i moliti se bogu.,csi,42,0,6,,,
,stimulus,canvas.Screen,2_15_1_0,,,,,,response,4367.800000190735,226244.10000014305,226241.2,226254.5,230622.30000019073,230623,2024-07-30T17:32:09.121Z,230629.5,BMPNF2epqC,incremental,anketa,6645cf40bc81b65c5faccf1d,participant,hcpib7dulz8oyvjr,,7,click @7,,"To su oni siromasi, koje je htio nahraniti i moliti se bogu..",Hoće nahraniti siromahe i moliti se bogu.,csi,42,0,6,,,
,Timer frame,html.Frame,2_15_1,,,,,,,4368.600000143051,226244,226241.2,226254.5,230623.10000014305,230623.10000014305,2024-07-30T17:32:09.121Z,230629.5,BMPNF2epqC,incremental,anketa,6645cf40bc81b65c5faccf1d,participant,hcpib7dulz8oyvjr,,,,,"To su oni siromasi, koje je htio nahraniti i moliti se bogu..",Hoće nahraniti siromahe i moliti se bogu.,csi,42,0,6,,,
,Spremanje,canvas.Screen,2_15_2,,,,,,skipped,,230623.10000014305,,,230623.10000014305,230623.10000014305,2024-07-30T17:32:09.121Z,230629.5,BMPNF2epqC,incremental,anketa,6645cf40bc81b65c5faccf1d,participant,hcpib7dulz8oyvjr,,,,,"To su oni siromasi, koje je htio nahraniti i moliti se bogu..",Hoće nahraniti siromahe i moliti se bogu.,csi,42,0,6,,,
,Question form,html.Form,2_15_3,,,,,,skipped,,230623.20000004768,,,230623.10000014305,230623.20000004768,2024-07-30T17:32:09.121Z,230629.5,BMPNF2epqC,incremental,anketa,6645cf40bc81b65c5faccf1d,participant,hcpib7dulz8oyvjr,,,,,"To su oni siromasi, koje je htio nahraniti i moliti se bogu..",Hoće nahraniti siromahe i moliti se bogu.,csi,42,0,6,,,
,Answer indication,canvas.Screen,2_15_4,,,,,,skipped,,230623.60000014305,,,230623.10000014305,230623.70000004768,2024-07-30T17:32:09.122Z,230629.5,BMPNF2epqC,incremental,anketa,6645cf40bc81b65c5faccf1d,participant,hcpib7dulz8oyvjr,,,,,"To su oni siromasi, koje je htio nahraniti i moliti se bogu..",Hoće nahraniti siromahe i moliti se bogu.,csi,42,0,6,,,
,inter-stimulus,canvas.Screen,2_15_5,,,,,,response,571.4000000953674,230623.80000019073,230616,230629.5,231200.90000009537,231202.40000009537,2024-07-30T17:32:09.700Z,231203,BMPNF2epqC,incremental,anketa,6645cf40bc81b65c5faccf1d,participant,hcpib7dulz8oyvjr,,,mousedown,,"To su oni siromasi, koje je htio nahraniti i moliti se bogu..",Hoće nahraniti siromahe i moliti se bogu.,csi,42,0,6,,,
,Sequence,flow.Sequence,2_15,,,,,,completion,7320.600000095379,223868,223867,223880.3,231200.90000009537,231202.5,2024-07-30T17:32:09.700Z,231203,BMPNF2epqC,incremental,anketa,6645cf40bc81b65c5faccf1d,participant,hcpib7dulz8oyvjr,,,,,"To su oni siromasi, koje je htio nahraniti i moliti se bogu..",Hoće nahraniti siromahe i moliti se bogu.,csi,42,0,6,,,
,context,canvas.Screen,2_16_0_0,,,,,,response,2984.300000190735,231202.70000004768,231189.6,231203,234187.30000019073,234187.90000009537,2024-07-30T17:32:12.686Z,234190.7,BMPNF2epqC,incremental,anketa,6645cf40bc81b65c5faccf1d,participant,hcpib7dulz8oyvjr,,,click,,"Kamo da ne odeš gladan, doručkovao si?",Doručkovao si da ne odeš gladan u planine.,ai,,,21,,,
,Timer frame,html.Frame,2_16_0,,,,,,,2985,231202.5,231189.6,231203,234188,234188,2024-07-30T17:32:12.686Z,234190.7,BMPNF2epqC,incremental,anketa,6645cf40bc81b65c5faccf1d,participant,hcpib7dulz8oyvjr,,,,,"Kamo da ne odeš gladan, doručkovao si?",Doručkovao si da ne odeš gladan u planine.,ai,,,21,,,
,stimulus,canvas.Screen,2_16_1_0,,,,,,response,6034.600000190723,234188.10000014305,234187.298,234190.7,240225.30000019073,240226.20000004768,2024-07-30T17:32:18.724Z,240246.3,BMPNF2epqC,incremental,anketa,6645cf40bc81b65c5faccf1d,participant,hcpib7dulz8oyvjr,,1,click @1,,"Kamo da ne odeš gladan, doručkovao si?",Doručkovao si da ne odeš gladan u planine.,ai,,,21,,,
,Timer frame,html.Frame,2_16_1,,,,,,,6035.600000190723,234188,234187.298,234190.7,240226.30000019073,240226.30000019073,2024-07-30T17:32:18.724Z,240246.3,BMPNF2epqC,incremental,anketa,6645cf40bc81b65c5faccf1d,participant,hcpib7dulz8oyvjr,,,,,"Kamo da ne odeš gladan, doručkovao si?",Doručkovao si da ne odeš gladan u planine.,ai,,,21,,,
,Spremanje,canvas.Screen,2_16_2,,,,,,skipped,,240226.40000009537,,,240226.30000019073,240226.40000009537,2024-07-30T17:32:18.724Z,240246.3,BMPNF2epqC,incremental,anketa,6645cf40bc81b65c5faccf1d,participant,hcpib7dulz8oyvjr,,,,,"Kamo da ne odeš gladan, doručkovao si?",Doručkovao si da ne odeš gladan u planine.,ai,,,21,,,
,Question form,html.Form,2_16_3,,,,,,skipped,,240226.40000009537,,,240226.30000019073,240226.40000009537,2024-07-30T17:32:18.724Z,240246.3,BMPNF2epqC,incremental,anketa,6645cf40bc81b65c5faccf1d,participant,hcpib7dulz8oyvjr,,,,,"Kamo da ne odeš gladan, doručkovao si?",Doručkovao si da ne odeš gladan u planine.,ai,,,21,,,
,Answer indication,canvas.Screen,2_16_4,,,,,,skipped,,240226.80000019073,,,240226.30000019073,240226.80000019073,2024-07-30T17:32:18.725Z,240246.3,BMPNF2epqC,incremental,anketa,6645cf40bc81b65c5faccf1d,participant,hcpib7dulz8oyvjr,,,,,"Kamo da ne odeš gladan, doručkovao si?",Doručkovao si da ne odeš gladan u planine.,ai,,,21,,,
,inter-stimulus,canvas.Screen,2_16_5,,,,,,response,1085.5000001907465,240226.80000019073,240232.9,240246.3,241331.80000019073,241333.30000019073,2024-07-30T17:32:19.831Z,241339.8,BMPNF2epqC,incremental,anketa,6645cf40bc81b65c5faccf1d,participant,hcpib7dulz8oyvjr,,,mousedown,,"Kamo da ne odeš gladan, doručkovao si?",Doručkovao si da ne odeš gladan u planine.,ai,,,21,,,
,Sequence,flow.Sequence,2_16,,,,,,completion,10128.800000190735,231202.5,231189.6,231203,241331.80000019073,241333.40000009537,2024-07-30T17:32:19.831Z,241339.8,BMPNF2epqC,incremental,anketa,6645cf40bc81b65c5faccf1d,participant,hcpib7dulz8oyvjr,,,,,"Kamo da ne odeš gladan, doručkovao si?",Doručkovao si da ne odeš gladan u planine.,ai,,,21,,,
,context,canvas.Screen,2_17_0_0,,,,,,response,2686.5000001907465,241333.60000014305,241333.088,241339.8,244026.30000019073,244026.90000009537,2024-07-30T17:32:22.525Z,244034.1,BMPNF2epqC,incremental,anketa,6645cf40bc81b65c5faccf1d,participant,hcpib7dulz8oyvjr,,,click,,"Koliko čega Luka je zaboravio, on mi je posudio?","Luka je zaboravio, koliko mi je novca posudio.",ai,,,28,,,
,Timer frame,html.Frame,2_17_0,,,,,,,2687.2000000000116,241333.5,241333.088,241339.8,244027,244027,2024-07-30T17:32:22.525Z,244034.1,BMPNF2epqC,incremental,anketa,6645cf40bc81b65c5faccf1d,participant,hcpib7dulz8oyvjr,,,,,"Koliko čega Luka je zaboravio, on mi je posudio?","Luka je zaboravio, koliko mi je novca posudio.",ai,,,28,,,
,stimulus,canvas.Screen,2_17_1_0,,,,,,response,4357.200000190729,244027,244024.23,244034.1,248391.30000019073,248391.80000019073,2024-07-30T17:32:26.890Z,248395.7,BMPNF2epqC,incremental,anketa,6645cf40bc81b65c5faccf1d,participant,hcpib7dulz8oyvjr,,1,click @1,,"Koliko čega Luka je zaboravio, on mi je posudio?","Luka je zaboravio, koliko mi je novca posudio.",ai,,,28,,,
,Timer frame,html.Frame,2_17_1,,,,,,,4357.800000095362,244027,244024.23,244034.1,248391.90000009537,248392,2024-07-30T17:32:26.890Z,248395.7,BMPNF2epqC,incremental,anketa,6645cf40bc81b65c5faccf1d,participant,hcpib7dulz8oyvjr,,,,,"Koliko čega Luka je zaboravio, on mi je posudio?","Luka je zaboravio, koliko mi je novca posudio.",ai,,,28,,,
,Spremanje,canvas.Screen,2_17_2,,,,,,skipped,,248392,,,248391.90000009537,248392,2024-07-30T17:32:26.890Z,248395.7,BMPNF2epqC,incremental,anketa,6645cf40bc81b65c5faccf1d,participant,hcpib7dulz8oyvjr,,,,,"Koliko čega Luka je zaboravio, on mi je posudio?","Luka je zaboravio, koliko mi je novca posudio.",ai,,,28,,,
,Question form,html.Form,2_17_3,,,,,,skipped,,248392.10000014305,,,248391.90000009537,248392.10000014305,2024-07-30T17:32:26.890Z,248395.7,BMPNF2epqC,incremental,anketa,6645cf40bc81b65c5faccf1d,participant,hcpib7dulz8oyvjr,,,,,"Koliko čega Luka je zaboravio, on mi je posudio?","Luka je zaboravio, koliko mi je novca posudio.",ai,,,28,,,
,Answer indication,canvas.Screen,2_17_4,,,,,,skipped,,248392.40000009537,,,248391.90000009537,248392.5,2024-07-30T17:32:26.890Z,248395.7,BMPNF2epqC,incremental,anketa,6645cf40bc81b65c5faccf1d,participant,hcpib7dulz8oyvjr,,,,,"Koliko čega Luka je zaboravio, on mi je posudio?","Luka je zaboravio, koliko mi je novca posudio.",ai,,,28,,,
,inter-stimulus,canvas.Screen,2_17_5,,,,,,response,914.1000001907232,248392.5,248395.664,248395.7,249309.80000019073,249311.30000019073,2024-07-30T17:32:27.809Z,249316,BMPNF2epqC,incremental,anketa,6645cf40bc81b65c5faccf1d,participant,hcpib7dulz8oyvjr,,,mousedown,,"Koliko čega Luka je zaboravio, on mi je posudio?","Luka je zaboravio, koliko mi je novca posudio.",ai,,,28,,,
,Sequence,flow.Sequence,2_17,,,,,,completion,7970.0000001907465,241333.40000009537,241333.088,241339.8,249309.80000019073,249311.40000009537,2024-07-30T17:32:27.809Z,249316,BMPNF2epqC,incremental,anketa,6645cf40bc81b65c5faccf1d,participant,hcpib7dulz8oyvjr,,,,,"Koliko čega Luka je zaboravio, on mi je posudio?","Luka je zaboravio, koliko mi je novca posudio.",ai,,,28,,,
,context,canvas.Screen,2_18_0_0,,,,,,response,1427.4000000953674,249311.60000014305,249309.324,249316,250743.40000009537,250744.20000004768,2024-07-30T17:32:29.242Z,250769.8,BMPNF2epqC,incremental,anketa,6645cf40bc81b65c5faccf1d,participant,hcpib7dulz8oyvjr,,,click,,Ove godine su se Viktor i Marta vjenčao.,Victor i Marta vjenčali su se ove godine.,nf,,,38,,,
,Timer frame,html.Frame,2_18_0,,,,,,,1428.2000000476837,249311.5,249309.324,249316,250744.20000004768,250744.30000019073,2024-07-30T17:32:29.242Z,250769.8,BMPNF2epqC,incremental,anketa,6645cf40bc81b65c5faccf1d,participant,hcpib7dulz8oyvjr,,,,,Ove godine su se Viktor i Marta vjenčao.,Victor i Marta vjenčali su se ove godine.,nf,,,38,,,
,stimulus,canvas.Screen,2_18_1_0,,,,,,response,2646.5000001907465,250744.30000019073,250756.6,250769.8,253416.30000019073,253416.90000009537,2024-07-30T17:32:31.915Z,253424.1,BMPNF2epqC,incremental,anketa,6645cf40bc81b65c5faccf1d,participant,hcpib7dulz8oyvjr,,1,click @1,,Ove godine su se Viktor i Marta vjenčao.,Victor i Marta vjenčali su se ove godine.,nf,,,38,,,
,Timer frame,html.Frame,2_18_1,,,,,,,2647.100000095379,250744.30000019073,250756.6,250769.8,253416.90000009537,253417,2024-07-30T17:32:31.915Z,253424.1,BMPNF2epqC,incremental,anketa,6645cf40bc81b65c5faccf1d,participant,hcpib7dulz8oyvjr,,,,,Ove godine su se Viktor i Marta vjenčao.,Victor i Marta vjenčali su se ove godine.,nf,,,38,,,
,Spremanje,canvas.Screen,2_18_2,,,,,,skipped,,253417.10000014305,,,253416.90000009537,253417.20000004768,2024-07-30T17:32:31.915Z,253424.1,BMPNF2epqC,incremental,anketa,6645cf40bc81b65c5faccf1d,participant,hcpib7dulz8oyvjr,,,,,Ove godine su se Viktor i Marta vjenčao.,Victor i Marta vjenčali su se ove godine.,nf,,,38,,,
,Question form,html.Form,2_18_3,,,,,,skipped,,253417.20000004768,,,253416.90000009537,253417.20000004768,2024-07-30T17:32:31.915Z,253424.1,BMPNF2epqC,incremental,anketa,6645cf40bc81b65c5faccf1d,participant,hcpib7dulz8oyvjr,,,,,Ove godine su se Viktor i Marta vjenčao.,Victor i Marta vjenčali su se ove godine.,nf,,,38,,,
,Answer indication,canvas.Screen,2_18_4,,,,,,skipped,,253417.60000014305,,,253416.90000009537,253417.60000014305,2024-07-30T17:32:31.916Z,253424.1,BMPNF2epqC,incremental,anketa,6645cf40bc81b65c5faccf1d,participant,hcpib7dulz8oyvjr,,,,,Ove godine su se Viktor i Marta vjenčao.,Victor i Marta vjenčali su se ove godine.,nf,,,38,,,
,inter-stimulus,canvas.Screen,2_18_5,,,,,,response,904.8000000953616,253417.70000004768,253410.8,253424.1,254328.90000009537,254330.30000019073,2024-07-30T17:32:32.828Z,254331.1,BMPNF2epqC,incremental,anketa,6645cf40bc81b65c5faccf1d,participant,hcpib7dulz8oyvjr,,,mousedown,,Ove godine su se Viktor i Marta vjenčao.,Victor i Marta vjenčali su se ove godine.,nf,,,38,,,
,Sequence,flow.Sequence,2_18,,,,,,completion,5012.900000095367,249311.5,249309.324,249316,254328.90000009537,254330.40000009537,2024-07-30T17:32:32.828Z,254331.1,BMPNF2epqC,incremental,anketa,6645cf40bc81b65c5faccf1d,participant,hcpib7dulz8oyvjr,,,,,Ove godine su se Viktor i Marta vjenčao.,Victor i Marta vjenčali su se ove godine.,nf,,,38,,,
,context,canvas.Screen,2_19_0_0,,,,,,response,1931.200000190729,254330.60000014305,254317.72,254331.1,256262.30000019073,256263,2024-07-30T17:32:34.761Z,256278.6,BMPNF2epqC,incremental,anketa,6645cf40bc81b65c5faccf1d,participant,hcpib7dulz8oyvjr,,,click,,Nešto se mu otac za punoljetnost poklonio.,Otac mu je za punoljetnost poklonio crveni Ferrari.,nf,,,42,,,
,Timer frame,html.Frame,2_19_0,,,,,,,1931.8999999999942,254330.40000009537,254317.72,254331.1,256263,256263.10000014305,2024-07-30T17:32:34.761Z,256278.6,BMPNF2epqC,incremental,anketa,6645cf40bc81b65c5faccf1d,participant,hcpib7dulz8oyvjr,,,,,Nešto se mu otac za punoljetnost poklonio.,Otac mu je za punoljetnost poklonio crveni Ferrari.,nf,,,42,,,
,stimulus,canvas.Screen,2_19_1_0,,,,,,response,3176.700000190729,256263.30000019073,256271.832,256278.6,259455.30000019073,259456,2024-07-30T17:32:37.954Z,259466.3,BMPNF2epqC,incremental,anketa,6645cf40bc81b65c5faccf1d,participant,hcpib7dulz8oyvjr,,1,click @1,,Nešto se mu otac za punoljetnost poklonio.,Otac mu je za punoljetnost poklonio crveni Ferrari.,nf,,,42,,,
,Timer frame,html.Frame,2_19_1,,,,,,,3177.399999999994,256263.20000004768,256271.832,256278.6,259456,259456.10000014305,2024-07-30T17:32:37.954Z,259466.3,BMPNF2epqC,incremental,anketa,6645cf40bc81b65c5faccf1d,participant,hcpib7dulz8oyvjr,,,,,Nešto se mu otac za punoljetnost poklonio.,Otac mu je za punoljetnost poklonio crveni Ferrari.,nf,,,42,,,
,Spremanje,canvas.Screen,2_19_2,,,,,,skipped,,259456.20000004768,,,259456,259456.20000004768,2024-07-30T17:32:37.954Z,259466.3,BMPNF2epqC,incremental,anketa,6645cf40bc81b65c5faccf1d,participant,hcpib7dulz8oyvjr,,,,,Nešto se mu otac za punoljetnost poklonio.,Otac mu je za punoljetnost poklonio crveni Ferrari.,nf,,,42,,,
,Question form,html.Form,2_19_3,,,,,,skipped,,259456.30000019073,,,259456,259456.30000019073,2024-07-30T17:32:37.954Z,259466.3,BMPNF2epqC,incremental,anketa,6645cf40bc81b65c5faccf1d,participant,hcpib7dulz8oyvjr,,,,,Nešto se mu otac za punoljetnost poklonio.,Otac mu je za punoljetnost poklonio crveni Ferrari.,nf,,,42,,,
,Answer indication,canvas.Screen,2_19_4,,,,,,skipped,,259456.60000014305,,,259456,259456.80000019073,2024-07-30T17:32:37.955Z,259466.3,BMPNF2epqC,incremental,anketa,6645cf40bc81b65c5faccf1d,participant,hcpib7dulz8oyvjr,,,,,Nešto se mu otac za punoljetnost poklonio.,Otac mu je za punoljetnost poklonio crveni Ferrari.,nf,,,42,,,
,inter-stimulus,canvas.Screen,2_19_5,,,,,,response,414.5000001907465,259456.80000019073,259453,259466.3,259880.80000019073,259882.20000004768,2024-07-30T17:32:38.380Z,259893.1,BMPNF2epqC,incremental,anketa,6645cf40bc81b65c5faccf1d,participant,hcpib7dulz8oyvjr,,,mousedown,,Nešto se mu otac za punoljetnost poklonio.,Otac mu je za punoljetnost poklonio crveni Ferrari.,nf,,,42,,,
,Sequence,flow.Sequence,2_19,,,,,,completion,5549.700000190729,254330.40000009537,254317.72,254331.1,259880.80000019073,259882.30000019073,2024-07-30T17:32:38.380Z,259893.1,BMPNF2epqC,incremental,anketa,6645cf40bc81b65c5faccf1d,participant,hcpib7dulz8oyvjr,,,,,Nešto se mu otac za punoljetnost poklonio.,Otac mu je za punoljetnost poklonio crveni Ferrari.,nf,,,42,,,
,context,canvas.Screen,2_20_0_0,,,,,,response,1790.200000190729,259882.5,259883.066,259893.1,261683.30000019073,261684.10000014305,2024-07-30T17:32:40.182Z,261693.7,BMPNF2epqC,incremental,anketa,6645cf40bc81b65c5faccf1d,participant,hcpib7dulz8oyvjr,,,click,,Prije čega dobro je da smo stigli?,Dobro je da smo stigli prije polaska vlaka.,si,,,15,,,
,Timer frame,html.Frame,2_20_0,,,,,,,1791.0000001430453,259882.40000009537,259883.066,259893.1,261684.10000014305,261684.20000004768,2024-07-30T17:32:40.182Z,261693.7,BMPNF2epqC,incremental,anketa,6645cf40bc81b65c5faccf1d,participant,hcpib7dulz8oyvjr,,,,,Prije čega dobro je da smo stigli?,Dobro je da smo stigli prije polaska vlaka.,si,,,15,,,
,stimulus,canvas.Screen,2_20_1_0,,,,,,response,4004.600000190723,261684.30000019073,261680.5,261693.7,265698.30000019073,265699.10000014305,2024-07-30T17:32:44.197Z,265721.9,BMPNF2epqC,incremental,anketa,6645cf40bc81b65c5faccf1d,participant,hcpib7dulz8oyvjr,,5,click @5,,Prije čega dobro je da smo stigli?,Dobro je da smo stigli prije polaska vlaka.,si,,,15,,,
,Timer frame,html.Frame,2_20_1,,,,,,,4005.500000047672,261684.20000004768,261680.5,261693.7,265699.2000000477,265699.2000000477,2024-07-30T17:32:44.197Z,265721.9,BMPNF2epqC,incremental,anketa,6645cf40bc81b65c5faccf1d,participant,hcpib7dulz8oyvjr,,,,,Prije čega dobro je da smo stigli?,Dobro je da smo stigli prije polaska vlaka.,si,,,15,,,
,Spremanje,canvas.Screen,2_20_2,,,,,,skipped,,265699.30000019073,,,265699.2000000477,265699.30000019073,2024-07-30T17:32:44.197Z,265721.9,BMPNF2epqC,incremental,anketa,6645cf40bc81b65c5faccf1d,participant,hcpib7dulz8oyvjr,,,,,Prije čega dobro je da smo stigli?,Dobro je da smo stigli prije polaska vlaka.,si,,,15,,,
,Question form,html.Form,2_20_3,,,,,,skipped,,265699.30000019073,,,265699.2000000477,265699.40000009537,2024-07-30T17:32:44.197Z,265721.9,BMPNF2epqC,incremental,anketa,6645cf40bc81b65c5faccf1d,participant,hcpib7dulz8oyvjr,,,,,Prije čega dobro je da smo stigli?,Dobro je da smo stigli prije polaska vlaka.,si,,,15,,,
,Answer indication,canvas.Screen,2_20_4,,,,,,skipped,,265699.60000014305,,,265699.2000000477,265699.80000019073,2024-07-30T17:32:44.198Z,265721.9,BMPNF2epqC,incremental,anketa,6645cf40bc81b65c5faccf1d,participant,hcpib7dulz8oyvjr,,,,,Prije čega dobro je da smo stigli?,Dobro je da smo stigli prije polaska vlaka.,si,,,15,,,
,inter-stimulus,canvas.Screen,2_20_5,,,,,,response,829.0000000953441,265699.80000019073,265708.6,265721.9,266550.90000009537,266555.7000000477,2024-07-30T17:32:45.054Z,266562.2,BMPNF2epqC,incremental,anketa,6645cf40bc81b65c5faccf1d,participant,hcpib7dulz8oyvjr,,,mousedown,,Prije čega dobro je da smo stigli?,Dobro je da smo stigli prije polaska vlaka.,si,,,15,,,
,Sequence,flow.Sequence,2_20,,,,,,completion,6657.800000095362,259882.40000009537,259883.066,259893.1,266550.90000009537,266556.2000000477,2024-07-30T17:32:45.054Z,266562.2,BMPNF2epqC,incremental,anketa,6645cf40bc81b65c5faccf1d,participant,hcpib7dulz8oyvjr,,,,,Prije čega dobro je da smo stigli?,Dobro je da smo stigli prije polaska vlaka.,si,,,15,,,
,context,canvas.Screen,2_21_0_0,,,,,,response,3359.100000190723,266557.10000014305,266558.798,266562.2,269921.30000019073,269921.80000019073,2024-07-30T17:32:48.420Z,269923.4,BMPNF2epqC,incremental,anketa,6645cf40bc81b65c5faccf1d,participant,hcpib7dulz8oyvjr,,,click,,Čije sam cvijeće izašao iz kuće i zaboravio zaliti?,Izašao sam iz kuće i zaboravio zaliti majkino cvijeće.,csi,0,0,4,ZALITI MAJKINO CVIJEĆE; ZALITI MAMINO CVIJECE; ZALITI CVIJECE MAJKE; ZALITI MAJČINO CVIJEĆE; ZALITI CVIJEĆE MAJKE; ZALITI MAJKINO CVIJECE; MAJKINO CVIJEĆE ZALITI; MAJKINO CVIJECE ZALITI; ZALITI CVIJECE; ZALITI CVIJEĆE; ZALITI CVJEĆE; ZALITI CVJECE,Što sam zaboravio napraviti?,
,Timer frame,html.Frame,2_21_0,,,,,,,3359.7999999999884,266556.5,266558.798,266562.2,269922,269922,2024-07-30T17:32:48.420Z,269923.4,BMPNF2epqC,incremental,anketa,6645cf40bc81b65c5faccf1d,participant,hcpib7dulz8oyvjr,,,,,Čije sam cvijeće izašao iz kuće i zaboravio zaliti?,Izašao sam iz kuće i zaboravio zaliti majkino cvijeće.,csi,0,0,4,ZALITI MAJKINO CVIJEĆE; ZALITI MAMINO CVIJECE; ZALITI CVIJECE MAJKE; ZALITI MAJČINO CVIJEĆE; ZALITI CVIJEĆE MAJKE; ZALITI MAJKINO CVIJECE; MAJKINO CVIJEĆE ZALITI; MAJKINO CVIJECE ZALITI; ZALITI CVIJECE; ZALITI CVIJEĆE; ZALITI CVJEĆE; ZALITI CVJECE,Što sam zaboravio napraviti?,
,stimulus,canvas.Screen,2_21_1_0,,,,,,response,4140.900000190712,269922.10000014305,269913.366,269923.4,274064.30000019073,274065,2024-07-30T17:32:52.563Z,274084.8,BMPNF2epqC,incremental,anketa,6645cf40bc81b65c5faccf1d,participant,hcpib7dulz8oyvjr,,7,click @7,,Čije sam cvijeće izašao iz kuće i zaboravio zaliti?,Izašao sam iz kuće i zaboravio zaliti majkino cvijeće.,csi,0,0,4,ZALITI MAJKINO CVIJEĆE; ZALITI MAMINO CVIJECE; ZALITI CVIJECE MAJKE; ZALITI MAJČINO CVIJEĆE; ZALITI CVIJEĆE MAJKE; ZALITI MAJKINO CVIJECE; MAJKINO CVIJEĆE ZALITI; MAJKINO CVIJECE ZALITI; ZALITI CVIJECE; ZALITI CVIJEĆE; ZALITI CVJEĆE; ZALITI CVJECE,Što sam zaboravio napraviti?,
,Timer frame,html.Frame,2_21_1,,,,,,,4141.700000143028,269922.10000014305,269913.366,269923.4,274065.10000014305,274065.10000014305,2024-07-30T17:32:52.563Z,274084.8,BMPNF2epqC,incremental,anketa,6645cf40bc81b65c5faccf1d,participant,hcpib7dulz8oyvjr,,,,,Čije sam cvijeće izašao iz kuće i zaboravio zaliti?,Izašao sam iz kuće i zaboravio zaliti majkino cvijeće.,csi,0,0,4,ZALITI MAJKINO CVIJEĆE; ZALITI MAMINO CVIJECE; ZALITI CVIJECE MAJKE; ZALITI MAJČINO CVIJEĆE; ZALITI CVIJEĆE MAJKE; ZALITI MAJKINO CVIJECE; MAJKINO CVIJEĆE ZALITI; MAJKINO CVIJECE ZALITI; ZALITI CVIJECE; ZALITI CVIJEĆE; ZALITI CVJEĆE; ZALITI CVJECE,Što sam zaboravio napraviti?,
,Spremanje,canvas.Screen,2_21_2,,,,,,response,1128.0000001907465,274065.10000014305,274071.5,274084.8,275212.80000019073,275214.2000000477,2024-07-30T17:32:53.712Z,275218.6,BMPNF2epqC,incremental,anketa,6645cf40bc81b65c5faccf1d,participant,hcpib7dulz8oyvjr,,,mousedown,,Čije sam cvijeće izašao iz kuće i zaboravio zaliti?,Izašao sam iz kuće i zaboravio zaliti majkino cvijeće.,csi,0,0,4,ZALITI MAJKINO CVIJEĆE; ZALITI MAMINO CVIJECE; ZALITI CVIJECE MAJKE; ZALITI MAJČINO CVIJEĆE; ZALITI CVIJEĆE MAJKE; ZALITI MAJKINO CVIJECE; MAJKINO CVIJEĆE ZALITI; MAJKINO CVIJECE ZALITI; ZALITI CVIJECE; ZALITI CVIJEĆE; ZALITI CVJEĆE; ZALITI CVJECE,Što sam zaboravio napraviti?,
,Question form,html.Form,2_21_3,,,,,,form submission,5801.800000095391,275214.40000009537,275208.63,275218.6,281020.40000009537,281020.5,2024-07-30T17:32:59.518Z,281035,BMPNF2epqC,incremental,anketa,6645cf40bc81b65c5faccf1d,participant,hcpib7dulz8oyvjr,,,,Zaliti cvijeće,Čije sam cvijeće izašao iz kuće i zaboravio zaliti?,Izašao sam iz kuće i zaboravio zaliti majkino cvijeće.,csi,0,0,4,ZALITI MAJKINO CVIJEĆE; ZALITI MAMINO CVIJECE; ZALITI CVIJECE MAJKE; ZALITI MAJČINO CVIJEĆE; ZALITI CVIJEĆE MAJKE; ZALITI MAJKINO CVIJECE; MAJKINO CVIJEĆE ZALITI; MAJKINO CVIJECE ZALITI; ZALITI CVIJECE; ZALITI CVIJEĆE; ZALITI CVJEĆE; ZALITI CVJECE,Što sam zaboravio napraviti?,
,Answer indication,canvas.Screen,2_21_4,,,,,,response,1159.4000000953674,281021.10000014305,281020.348,281035,282194.40000009537,282195,2024-07-30T17:33:00.693Z,282207.7,BMPNF2epqC,incremental,anketa,6645cf40bc81b65c5faccf1d,participant,hcpib7dulz8oyvjr,,,keypress,,Čije sam cvijeće izašao iz kuće i zaboravio zaliti?,Izašao sam iz kuće i zaboravio zaliti majkino cvijeće.,csi,0,0,4,ZALITI MAJKINO CVIJEĆE; ZALITI MAMINO CVIJECE; ZALITI CVIJECE MAJKE; ZALITI MAJČINO CVIJEĆE; ZALITI CVIJEĆE MAJKE; ZALITI MAJKINO CVIJECE; MAJKINO CVIJEĆE ZALITI; MAJKINO CVIJECE ZALITI; ZALITI CVIJECE; ZALITI CVIJEĆE; ZALITI CVJEĆE; ZALITI CVJECE,Što sam zaboravio napraviti?,
,inter-stimulus,canvas.Screen,2_21_5,,,,,,response,802.9000001430395,282195,282193.9,282207.7,283010.60000014305,283011,2024-07-30T17:33:01.509Z,283021.3,BMPNF2epqC,incremental,anketa,6645cf40bc81b65c5faccf1d,participant,hcpib7dulz8oyvjr,,,keypress,,Čije sam cvijeće izašao iz kuće i zaboravio zaliti?,Izašao sam iz kuće i zaboravio zaliti majkino cvijeće.,csi,0,0,4,ZALITI MAJKINO CVIJEĆE; ZALITI MAMINO CVIJECE; ZALITI CVIJECE MAJKE; ZALITI MAJČINO CVIJEĆE; ZALITI CVIJEĆE MAJKE; ZALITI MAJKINO CVIJECE; MAJKINO CVIJEĆE ZALITI; MAJKINO CVIJECE ZALITI; ZALITI CVIJECE; ZALITI CVIJEĆE; ZALITI CVJEĆE; ZALITI CVJECE,Što sam zaboravio napraviti?,
,Sequence,flow.Sequence,2_21,,,,,,completion,16448.40000014304,266556.30000019073,266558.798,266562.2,283010.60000014305,283011.2000000477,2024-07-30T17:33:01.509Z,283021.3,BMPNF2epqC,incremental,anketa,6645cf40bc81b65c5faccf1d,participant,hcpib7dulz8oyvjr,,,,,Čije sam cvijeće izašao iz kuće i zaboravio zaliti?,Izašao sam iz kuće i zaboravio zaliti majkino cvijeće.,csi,0,0,4,ZALITI MAJKINO CVIJEĆE; ZALITI MAMINO CVIJECE; ZALITI CVIJECE MAJKE; ZALITI MAJČINO CVIJEĆE; ZALITI CVIJEĆE MAJKE; ZALITI MAJKINO CVIJECE; MAJKINO CVIJEĆE ZALITI; MAJKINO CVIJECE ZALITI; ZALITI CVIJECE; ZALITI CVIJEĆE; ZALITI CVJEĆE; ZALITI CVJECE,Što sam zaboravio napraviti?,
,context,canvas.Screen,2_22_0_0,,,,,,response,1341.3000001430628,283011.5,283007.7,283021.3,284362.60000014305,284362.90000009537,2024-07-30T17:33:02.861Z,284368.5,BMPNF2epqC,incremental,anketa,6645cf40bc81b65c5faccf1d,participant,hcpib7dulz8oyvjr,,,keypress,,Što ćemo uništit i saditi vrtove?,Uništit ćemo carstva i saditi vrtove.,csi,0,0,5,,,
,Timer frame,html.Frame,2_22_0,,,,,,,1341.7000000000116,283011.30000019073,283007.7,283021.3,284363,284363.2000000477,2024-07-30T17:33:02.861Z,284368.5,BMPNF2epqC,incremental,anketa,6645cf40bc81b65c5faccf1d,participant,hcpib7dulz8oyvjr,,,,,Što ćemo uništit i saditi vrtove?,Uništit ćemo carstva i saditi vrtove.,csi,0,0,5,,,
,stimulus,canvas.Screen,2_22_1_0,,,,,,response,3197.800000190735,284363.30000019073,284358.294,284368.5,287566.30000019073,287567.2000000477,2024-07-30T17:33:06.065Z,287582.9,BMPNF2epqC,incremental,anketa,6645cf40bc81b65c5faccf1d,participant,hcpib7dulz8oyvjr,,6,click @6,,Što ćemo uništit i saditi vrtove?,Uništit ćemo carstva i saditi vrtove.,csi,0,0,5,,,
,Timer frame,html.Frame,2_22_1,,,,,,,3198.7000000476837,284363.2000000477,284358.294,284368.5,287567.2000000477,287567.30000019073,2024-07-30T17:33:06.065Z,287582.9,BMPNF2epqC,incremental,anketa,6645cf40bc81b65c5faccf1d,participant,hcpib7dulz8oyvjr,,,,,Što ćemo uništit i saditi vrtove?,Uništit ćemo carstva i saditi vrtove.,csi,0,0,5,,,
,Spremanje,canvas.Screen,2_22_2,,,,,,skipped,,287567.40000009537,,,287567.2000000477,287567.40000009537,2024-07-30T17:33:06.065Z,287582.9,BMPNF2epqC,incremental,anketa,6645cf40bc81b65c5faccf1d,participant,hcpib7dulz8oyvjr,,,,,Što ćemo uništit i saditi vrtove?,Uništit ćemo carstva i saditi vrtove.,csi,0,0,5,,,
,Question form,html.Form,2_22_3,,,,,,skipped,,287567.5,,,287567.2000000477,287567.5,2024-07-30T17:33:06.066Z,287582.9,BMPNF2epqC,incremental,anketa,6645cf40bc81b65c5faccf1d,participant,hcpib7dulz8oyvjr,,,,,Što ćemo uništit i saditi vrtove?,Uništit ćemo carstva i saditi vrtove.,csi,0,0,5,,,
,Answer indication,canvas.Screen,2_22_4,,,,,,skipped,,287568,,,287567.2000000477,287568,2024-07-30T17:33:06.066Z,287582.9,BMPNF2epqC,incremental,anketa,6645cf40bc81b65c5faccf1d,participant,hcpib7dulz8oyvjr,,,,,Što ćemo uništit i saditi vrtove?,Uništit ćemo carstva i saditi vrtove.,csi,0,0,5,,,
,inter-stimulus,canvas.Screen,2_22_5,,,,,,response,604.8000000476604,287568,287569.6,287582.9,288187.7000000477,288189.10000014305,2024-07-30T17:33:06.687Z,288209.8,BMPNF2epqC,incremental,anketa,6645cf40bc81b65c5faccf1d,participant,hcpib7dulz8oyvjr,,,mousedown,,Što ćemo uništit i saditi vrtove?,Uništit ćemo carstva i saditi vrtove.,csi,0,0,5,,,
,Sequence,flow.Sequence,2_22,,,,,,completion,5166.400000047695,283011.2000000477,283007.7,283021.3,288187.7000000477,288189.30000019073,2024-07-30T17:33:06.687Z,288209.8,BMPNF2epqC,incremental,anketa,6645cf40bc81b65c5faccf1d,participant,hcpib7dulz8oyvjr,,,,,Što ćemo uništit i saditi vrtove?,Uništit ćemo carstva i saditi vrtove.,csi,0,0,5,,,
,context,canvas.Screen,2_23_0_0,,,,,,response,5227.5000001907465,288189.40000009537,288196.5,288209.8,293437.30000019073,293438,2024-07-30T17:33:11.936Z,293452.5,BMPNF2epqC,incremental,anketa,6645cf40bc81b65c5faccf1d,participant,hcpib7dulz8oyvjr,,,click,,"Što žele da Ivan pripremi, a Nikola da posprema kuću??","Žele da Ivan pripremi juhu, a Nikola da posprema kuću..",csi,26,27,3,,,
,Timer frame,html.Frame,2_23_0,,,,,,,5228.200000000012,288189.30000019073,288196.5,288209.8,293438,293438.10000014305,2024-07-30T17:33:11.936Z,293452.5,BMPNF2epqC,incremental,anketa,6645cf40bc81b65c5faccf1d,participant,hcpib7dulz8oyvjr,,,,,"Što žele da Ivan pripremi, a Nikola da posprema kuću??","Žele da Ivan pripremi juhu, a Nikola da posprema kuću..",csi,26,27,3,,,
,stimulus,canvas.Screen,2_23_1_0,,,,,,response,4770.800000190735,293438.2000000477,293438.264,293452.5,298223.30000019073,298224,2024-07-30T17:33:16.722Z,298240.1,BMPNF2epqC,incremental,anketa,6645cf40bc81b65c5faccf1d,participant,hcpib7dulz8oyvjr,,3,click @3,,"Što žele da Ivan pripremi, a Nikola da posprema kuću??","Žele da Ivan pripremi juhu, a Nikola da posprema kuću..",csi,26,27,3,,,
,Timer frame,html.Frame,2_23_1,,,,,,,4771.5,293438.2000000477,293438.264,293452.5,298224,298224.10000014305,2024-07-30T17:33:16.722Z,298240.1,BMPNF2epqC,incremental,anketa,6645cf40bc81b65c5faccf1d,participant,hcpib7dulz8oyvjr,,,,,"Što žele da Ivan pripremi, a Nikola da posprema kuću??","Žele da Ivan pripremi juhu, a Nikola da posprema kuću..",csi,26,27,3,,,
,Spremanje,canvas.Screen,2_23_2,,,,,,skipped,,298224.10000014305,,,298224,298224.10000014305,2024-07-30T17:33:16.722Z,298240.1,BMPNF2epqC,incremental,anketa,6645cf40bc81b65c5faccf1d,participant,hcpib7dulz8oyvjr,,,,,"Što žele da Ivan pripremi, a Nikola da posprema kuću??","Žele da Ivan pripremi juhu, a Nikola da posprema kuću..",csi,26,27,3,,,
,Question form,html.Form,2_23_3,,,,,,skipped,,298224.10000014305,,,298224,298224.2000000477,2024-07-30T17:33:16.722Z,298240.1,BMPNF2epqC,incremental,anketa,6645cf40bc81b65c5faccf1d,participant,hcpib7dulz8oyvjr,,,,,"Što žele da Ivan pripremi, a Nikola da posprema kuću??","Žele da Ivan pripremi juhu, a Nikola da posprema kuću..",csi,26,27,3,,,
,Answer indication,canvas.Screen,2_23_4,,,,,,skipped,,298224.7000000477,,,298224,298224.80000019073,2024-07-30T17:33:16.723Z,298240.1,BMPNF2epqC,incremental,anketa,6645cf40bc81b65c5faccf1d,participant,hcpib7dulz8oyvjr,,,,,"Što žele da Ivan pripremi, a Nikola da posprema kuću??","Žele da Ivan pripremi juhu, a Nikola da posprema kuću..",csi,26,27,3,,,
,inter-stimulus,canvas.Screen,2_23_5,,,,,,response,788.7000001907581,298224.80000019073,298226.8,298240.1,299028.80000019073,299030.2000000477,2024-07-30T17:33:17.528Z,299040.4,BMPNF2epqC,incremental,anketa,6645cf40bc81b65c5faccf1d,participant,hcpib7dulz8oyvjr,,,mousedown,,"Što žele da Ivan pripremi, a Nikola da posprema kuću??","Žele da Ivan pripremi juhu, a Nikola da posprema kuću..",csi,26,27,3,,,
,Sequence,flow.Sequence,2_23,,,,,,completion,10819.000000190747,288189.30000019073,288196.5,288209.8,299028.80000019073,299030.2000000477,2024-07-30T17:33:17.528Z,299040.4,BMPNF2epqC,incremental,anketa,6645cf40bc81b65c5faccf1d,participant,hcpib7dulz8oyvjr,,,,,"Što žele da Ivan pripremi, a Nikola da posprema kuću??","Žele da Ivan pripremi juhu, a Nikola da posprema kuću..",csi,26,27,3,,,
,context,canvas.Screen,2_24_0_0,,,,,,response,2122.8000000476604,299030.5,299026.9,299040.4,301163.2000000477,301163.80000019073,2024-07-30T17:33:19.662Z,301187.8,BMPNF2epqC,incremental,anketa,6645cf40bc81b65c5faccf1d,participant,hcpib7dulz8oyvjr,,,click,,Čega si gledao prepričavanje?,Gledao si prepričavanje filma.,di,,,31,,,
,Timer frame,html.Frame,2_24_0,,,,,,,2123.4000001907116,299030.30000019073,299026.9,299040.4,301163.80000019073,301163.90000009537,2024-07-30T17:33:19.662Z,301187.8,BMPNF2epqC,incremental,anketa,6645cf40bc81b65c5faccf1d,participant,hcpib7dulz8oyvjr,,,,,Čega si gledao prepričavanje?,Gledao si prepričavanje filma.,di,,,31,,,
,stimulus,canvas.Screen,2_24_1_0,,,,,,response,1477.5000001907465,301164,301174.5,301187.8,302665.30000019073,302665.90000009537,2024-07-30T17:33:21.164Z,302681.7,BMPNF2epqC,incremental,anketa,6645cf40bc81b65c5faccf1d,participant,hcpib7dulz8oyvjr,,7,click @7,,Čega si gledao prepričavanje?,Gledao si prepričavanje filma.,di,,,31,,,
,Timer frame,html.Frame,2_24_1,,,,,,,1478.2000000000116,301164,301174.5,301187.8,302666,302666,2024-07-30T17:33:21.164Z,302681.7,BMPNF2epqC,incremental,anketa,6645cf40bc81b65c5faccf1d,participant,hcpib7dulz8oyvjr,,,,,Čega si gledao prepričavanje?,Gledao si prepričavanje filma.,di,,,31,,,
,Spremanje,canvas.Screen,2_24_2,,,,,,skipped,,302666.10000014305,,,302666,302666.10000014305,2024-07-30T17:33:21.164Z,302681.7,BMPNF2epqC,incremental,anketa,6645cf40bc81b65c5faccf1d,participant,hcpib7dulz8oyvjr,,,,,Čega si gledao prepričavanje?,Gledao si prepričavanje filma.,di,,,31,,,
,Question form,html.Form,2_24_3,,,,,,skipped,,302666.10000014305,,,302666,302666.2000000477,2024-07-30T17:33:21.164Z,302681.7,BMPNF2epqC,incremental,anketa,6645cf40bc81b65c5faccf1d,participant,hcpib7dulz8oyvjr,,,,,Čega si gledao prepričavanje?,Gledao si prepričavanje filma.,di,,,31,,,
,Answer indication,canvas.Screen,2_24_4,,,,,,skipped,,302666.7000000477,,,302666,302666.7000000477,2024-07-30T17:33:21.165Z,302681.7,BMPNF2epqC,incremental,anketa,6645cf40bc81b65c5faccf1d,participant,hcpib7dulz8oyvjr,,,,,Čega si gledao prepričavanje?,Gledao si prepričavanje filma.,di,,,31,,,
,inter-stimulus,canvas.Screen,2_24_5,,,,,,response,464.0000000476721,302666.80000019073,302668.3,302681.7,303145.7000000477,303147.10000014305,2024-07-30T17:33:21.645Z,303161.8,BMPNF2epqC,incremental,anketa,6645cf40bc81b65c5faccf1d,participant,hcpib7dulz8oyvjr,,,mousedown,,Čega si gledao prepričavanje?,Gledao si prepričavanje filma.,di,,,31,,,
,Sequence,flow.Sequence,2_24,,,,,,completion,4105.30000004766,299030.30000019073,299026.9,299040.4,303145.7000000477,303147.10000014305,2024-07-30T17:33:21.645Z,303161.8,BMPNF2epqC,incremental,anketa,6645cf40bc81b65c5faccf1d,participant,hcpib7dulz8oyvjr,,,,,Čega si gledao prepričavanje?,Gledao si prepričavanje filma.,di,,,31,,,
,context,canvas.Screen,2_25_0_0,,,,,,response,1191.5000001907465,303147.30000019073,303148.5,303161.8,304353.30000019073,304353.90000009537,2024-07-30T17:33:22.852Z,304375.6,BMPNF2epqC,incremental,anketa,6645cf40bc81b65c5faccf1d,participant,hcpib7dulz8oyvjr,,,click,,"Što je on plakao, čitajući?","On je plakao, čitajući knjigu.",ai,,,22,,,
,Timer frame,html.Frame,2_25_0,,,,,,,1192.2000000000116,303147.2000000477,303148.5,303161.8,304354,304354.10000014305,2024-07-30T17:33:22.852Z,304375.6,BMPNF2epqC,incremental,anketa,6645cf40bc81b65c5faccf1d,participant,hcpib7dulz8oyvjr,,,,,"Što je on plakao, čitajući?","On je plakao, čitajući knjigu.",ai,,,22,,,
,stimulus,canvas.Screen,2_25_1_0,,,,,,response,2899.700000190758,304354.10000014305,304362.2,304375.6,307275.30000019073,307275.90000009537,2024-07-30T17:33:25.774Z,307283.3,BMPNF2epqC,incremental,anketa,6645cf40bc81b65c5faccf1d,participant,hcpib7dulz8oyvjr,,1,click @1,,"Što je on plakao, čitajući?","On je plakao, čitajući knjigu.",ai,,,22,,,
,Timer frame,html.Frame,2_25_1,,,,,,,2900.4000000000233,304354.10000014305,304362.2,304375.6,307276,307276,2024-07-30T17:33:25.774Z,307283.3,BMPNF2epqC,incremental,anketa,6645cf40bc81b65c5faccf1d,participant,hcpib7dulz8oyvjr,,,,,"Što je on plakao, čitajući?","On je plakao, čitajući knjigu.",ai,,,22,,,
,Spremanje,canvas.Screen,2_25_2,,,,,,skipped,,307276.10000014305,,,307276,307276.10000014305,2024-07-30T17:33:25.774Z,307283.3,BMPNF2epqC,incremental,anketa,6645cf40bc81b65c5faccf1d,participant,hcpib7dulz8oyvjr,,,,,"Što je on plakao, čitajući?","On je plakao, čitajući knjigu.",ai,,,22,,,
,Question form,html.Form,2_25_3,,,,,,skipped,,307276.2000000477,,,307276,307276.2000000477,2024-07-30T17:33:25.774Z,307283.3,BMPNF2epqC,incremental,anketa,6645cf40bc81b65c5faccf1d,participant,hcpib7dulz8oyvjr,,,,,"Što je on plakao, čitajući?","On je plakao, čitajući knjigu.",ai,,,22,,,
,Answer indication,canvas.Screen,2_25_4,,,,,,skipped,,307276.40000009537,,,307276,307276.5,2024-07-30T17:33:25.775Z,307283.3,BMPNF2epqC,incremental,anketa,6645cf40bc81b65c5faccf1d,participant,hcpib7dulz8oyvjr,,,,,"Što je on plakao, čitajući?","On je plakao, čitajući knjigu.",ai,,,22,,,
,inter-stimulus,canvas.Screen,2_25_5,,,,,,response,564.6000000953791,307276.60000014305,307273.366,307283.3,307847.90000009537,307849.30000019073,2024-07-30T17:33:26.347Z,307856.9,BMPNF2epqC,incremental,anketa,6645cf40bc81b65c5faccf1d,participant,hcpib7dulz8oyvjr,,,mousedown,,"Što je on plakao, čitajući?","On je plakao, čitajući knjigu.",ai,,,22,,,
,Sequence,flow.Sequence,2_25,,,,,,completion,4686.100000095379,303147.10000014305,303148.5,303161.8,307847.90000009537,307849.40000009537,2024-07-30T17:33:26.347Z,307856.9,BMPNF2epqC,incremental,anketa,6645cf40bc81b65c5faccf1d,participant,hcpib7dulz8oyvjr,,,,,"Što je on plakao, čitajući?","On je plakao, čitajući knjigu.",ai,,,22,,,
,context,canvas.Screen,2_26_0_0,,,,,,response,120.40000019071158,307849.60000014305,307843.492,307856.9,307977.30000019073,307977.90000009537,2024-07-30T17:33:26.476Z,307990.2,BMPNF2epqC,incremental,anketa,6645cf40bc81b65c5faccf1d,participant,hcpib7dulz8oyvjr,,,click,,Na što je teško prestati besmisleno bacati novac?,Teško je prestati besmisleno bacati novac na tenisice.,si,,,13,,,
,Timer frame,html.Frame,2_26_0,,,,,,,121.09999999997672,307849.40000009537,307843.492,307856.9,307978,307978,2024-07-30T17:33:26.476Z,307990.2,BMPNF2epqC,incremental,anketa,6645cf40bc81b65c5faccf1d,participant,hcpib7dulz8oyvjr,,,,,Na što je teško prestati besmisleno bacati novac?,Teško je prestati besmisleno bacati novac na tenisice.,si,,,13,,,
,stimulus,canvas.Screen,2_26_1_0,,,,,,response,4442.100000190723,307978.10000014305,307976.9,307990.2,312432.30000019073,312432.80000019073,2024-07-30T17:33:30.931Z,312458.5,BMPNF2epqC,incremental,anketa,6645cf40bc81b65c5faccf1d,participant,hcpib7dulz8oyvjr,,7,click @7,,Na što je teško prestati besmisleno bacati novac?,Teško je prestati besmisleno bacati novac na tenisice.,si,,,13,,,
,Timer frame,html.Frame,2_26_1,,,,,,,4442.700000095356,307978.10000014305,307976.9,307990.2,312432.90000009537,312432.90000009537,2024-07-30T17:33:30.931Z,312458.5,BMPNF2epqC,incremental,anketa,6645cf40bc81b65c5faccf1d,participant,hcpib7dulz8oyvjr,,,,,Na što je teško prestati besmisleno bacati novac?,Teško je prestati besmisleno bacati novac na tenisice.,si,,,13,,,
,Spremanje,canvas.Screen,2_26_2,,,,,,skipped,,312433,,,312432.90000009537,312433,2024-07-30T17:33:30.931Z,312458.5,BMPNF2epqC,incremental,anketa,6645cf40bc81b65c5faccf1d,participant,hcpib7dulz8oyvjr,,,,,Na što je teško prestati besmisleno bacati novac?,Teško je prestati besmisleno bacati novac na tenisice.,si,,,13,,,
,Question form,html.Form,2_26_3,,,,,,skipped,,312433,,,312432.90000009537,312433.10000014305,2024-07-30T17:33:30.931Z,312458.5,BMPNF2epqC,incremental,anketa,6645cf40bc81b65c5faccf1d,participant,hcpib7dulz8oyvjr,,,,,Na što je teško prestati besmisleno bacati novac?,Teško je prestati besmisleno bacati novac na tenisice.,si,,,13,,,
,Answer indication,canvas.Screen,2_26_4,,,,,,skipped,,312433.40000009537,,,312432.90000009537,312433.5,2024-07-30T17:33:30.932Z,312458.5,BMPNF2epqC,incremental,anketa,6645cf40bc81b65c5faccf1d,participant,hcpib7dulz8oyvjr,,,,,Na što je teško prestati besmisleno bacati novac?,Teško je prestati besmisleno bacati novac na tenisice.,si,,,13,,,
,inter-stimulus,canvas.Screen,2_26_5,,,,,,response,1065.2000000476837,312433.5,312445.1,312458.5,313523.7000000477,313525.2000000477,2024-07-30T17:33:32.023Z,313538.8,BMPNF2epqC,incremental,anketa,6645cf40bc81b65c5faccf1d,participant,hcpib7dulz8oyvjr,,,mousedown,,Na što je teško prestati besmisleno bacati novac?,Teško je prestati besmisleno bacati novac na tenisice.,si,,,13,,,
,Sequence,flow.Sequence,2_26,,,,,,completion,5666.80000004766,307849.40000009537,307843.492,307856.9,313523.7000000477,313525.40000009537,2024-07-30T17:33:32.023Z,313538.8,BMPNF2epqC,incremental,anketa,6645cf40bc81b65c5faccf1d,participant,hcpib7dulz8oyvjr,,,,,Na što je teško prestati besmisleno bacati novac?,Teško je prestati besmisleno bacati novac na tenisice.,si,,,13,,,
,context,canvas.Screen,2_27_0_0,,,,,,response,4295.5000001907465,313525.7000000477,313525.5,313538.8,317834.30000019073,317834.90000009537,2024-07-30T17:33:36.333Z,317847,BMPNF2epqC,incremental,anketa,6645cf40bc81b65c5faccf1d,participant,hcpib7dulz8oyvjr,,,click,,Koliko vidim dječaka kojem je ljubazni poštar poklonio bicikla??,Vidim dječaka kojem je ljubazni poštar poklonio dva bicikla..,cnp,38,38,10,,,2305
,Timer frame,html.Frame,2_27_0,,,,,,,4296.200000000012,313525.40000009537,313525.5,313538.8,317835,317835,2024-07-30T17:33:36.333Z,317847,BMPNF2epqC,incremental,anketa,6645cf40bc81b65c5faccf1d,participant,hcpib7dulz8oyvjr,,,,,Koliko vidim dječaka kojem je ljubazni poštar poklonio bicikla??,Vidim dječaka kojem je ljubazni poštar poklonio dva bicikla..,cnp,38,38,10,,,2305
,stimulus,canvas.Screen,2_27_1_0,,,,,,response,5815.300000190735,317835.2000000477,317837.066,317847,323662.30000019073,323664.5,2024-07-30T17:33:42.163Z,323689.1,BMPNF2epqC,incremental,anketa,6645cf40bc81b65c5faccf1d,participant,hcpib7dulz8oyvjr,,5,click @5,,Koliko vidim dječaka kojem je ljubazni poštar poklonio bicikla??,Vidim dječaka kojem je ljubazni poštar poklonio dva bicikla..,cnp,38,38,10,,,2305
,Timer frame,html.Frame,2_27_1,,,,,,,5817.5,317835.10000014305,317837.066,317847,323664.5,323664.60000014305,2024-07-30T17:33:42.163Z,323689.1,BMPNF2epqC,incremental,anketa,6645cf40bc81b65c5faccf1d,participant,hcpib7dulz8oyvjr,,,,,Koliko vidim dječaka kojem je ljubazni poštar poklonio bicikla??,Vidim dječaka kojem je ljubazni poštar poklonio dva bicikla..,cnp,38,38,10,,,2305
,Spremanje,canvas.Screen,2_27_2,,,,,,skipped,,323664.7000000477,,,323664.5,323664.7000000477,2024-07-30T17:33:42.163Z,323689.1,BMPNF2epqC,incremental,anketa,6645cf40bc81b65c5faccf1d,participant,hcpib7dulz8oyvjr,,,,,Koliko vidim dječaka kojem je ljubazni poštar poklonio bicikla??,Vidim dječaka kojem je ljubazni poštar poklonio dva bicikla..,cnp,38,38,10,,,2305
,Question form,html.Form,2_27_3,,,,,,skipped,,323664.7000000477,,,323664.5,323664.7000000477,2024-07-30T17:33:42.163Z,323689.1,BMPNF2epqC,incremental,anketa,6645cf40bc81b65c5faccf1d,participant,hcpib7dulz8oyvjr,,,,,Koliko vidim dječaka kojem je ljubazni poštar poklonio bicikla??,Vidim dječaka kojem je ljubazni poštar poklonio dva bicikla..,cnp,38,38,10,,,2305
,Answer indication,canvas.Screen,2_27_4,,,,,,skipped,,323665.10000014305,,,323664.5,323665.10000014305,2024-07-30T17:33:42.163Z,323689.1,BMPNF2epqC,incremental,anketa,6645cf40bc81b65c5faccf1d,participant,hcpib7dulz8oyvjr,,,,,Koliko vidim dječaka kojem je ljubazni poštar poklonio bicikla??,Vidim dječaka kojem je ljubazni poštar poklonio dva bicikla..,cnp,38,38,10,,,2305
,inter-stimulus,canvas.Screen,2_27_5,,,,,,response,965.8000000953907,323665.2000000477,323675.8,323689.1,324654.90000009537,324656.2000000477,2024-07-30T17:33:43.154Z,324676.1,BMPNF2epqC,incremental,anketa,6645cf40bc81b65c5faccf1d,participant,hcpib7dulz8oyvjr,,,mousedown,,Koliko vidim dječaka kojem je ljubazni poštar poklonio bicikla??,Vidim dječaka kojem je ljubazni poštar poklonio dva bicikla..,cnp,38,38,10,,,2305
,Sequence,flow.Sequence,2_27,,,,,,completion,11116.100000095379,313525.40000009537,313525.5,313538.8,324654.90000009537,324656.30000019073,2024-07-30T17:33:43.154Z,324676.1,BMPNF2epqC,incremental,anketa,6645cf40bc81b65c5faccf1d,participant,hcpib7dulz8oyvjr,,,,,Koliko vidim dječaka kojem je ljubazni poštar poklonio bicikla??,Vidim dječaka kojem je ljubazni poštar poklonio dva bicikla..,cnp,38,38,10,,,2305
,context,canvas.Screen,2_28_0_0,,,,,,response,1582.2000001907581,324656.5,324662.8,324676.1,326258.30000019073,326259.30000019073,2024-07-30T17:33:44.757Z,326276.7,BMPNF2epqC,incremental,anketa,6645cf40bc81b65c5faccf1d,participant,hcpib7dulz8oyvjr,,,click,,U sutra ne samo svatko jedan može gledati.,Ne može svatko gledati u sutra.,nf,,,45,,,
,Timer frame,html.Frame,2_28_0,,,,,,,1583.3000000953907,324656.30000019073,324662.8,324676.1,326259.40000009537,326259.40000009537,2024-07-30T17:33:44.758Z,326276.7,BMPNF2epqC,incremental,anketa,6645cf40bc81b65c5faccf1d,participant,hcpib7dulz8oyvjr,,,,,U sutra ne samo svatko jedan može gledati.,Ne može svatko gledati u sutra.,nf,,,45,,,
,stimulus,canvas.Screen,2_28_1_0,,,,,,response,3806.500000047672,326259.60000014305,326263.4,326276.7,330083.2000000477,330083.80000019073,2024-07-30T17:33:48.582Z,330104.7,BMPNF2epqC,incremental,anketa,6645cf40bc81b65c5faccf1d,participant,hcpib7dulz8oyvjr,,1,click @1,,U sutra ne samo svatko jedan može gledati.,Ne može svatko gledati u sutra.,nf,,,45,,,
,Timer frame,html.Frame,2_28_1,,,,,,,3807.200000095356,326259.5,326263.4,326276.7,330083.90000009537,330084,2024-07-30T17:33:48.582Z,330104.7,BMPNF2epqC,incremental,anketa,6645cf40bc81b65c5faccf1d,participant,hcpib7dulz8oyvjr,,,,,U sutra ne samo svatko jedan može gledati.,Ne može svatko gledati u sutra.,nf,,,45,,,
,Spremanje,canvas.Screen,2_28_2,,,,,,skipped,,330084.10000014305,,,330083.90000009537,330084.10000014305,2024-07-30T17:33:48.582Z,330104.7,BMPNF2epqC,incremental,anketa,6645cf40bc81b65c5faccf1d,participant,hcpib7dulz8oyvjr,,,,,U sutra ne samo svatko jedan može gledati.,Ne može svatko gledati u sutra.,nf,,,45,,,
,Question form,html.Form,2_28_3,,,,,,skipped,,330084.10000014305,,,330083.90000009537,330084.10000014305,2024-07-30T17:33:48.582Z,330104.7,BMPNF2epqC,incremental,anketa,6645cf40bc81b65c5faccf1d,participant,hcpib7dulz8oyvjr,,,,,U sutra ne samo svatko jedan može gledati.,Ne može svatko gledati u sutra.,nf,,,45,,,
,Answer indication,canvas.Screen,2_28_4,,,,,,skipped,,330084.40000009537,,,330083.90000009537,330084.5,2024-07-30T17:33:48.582Z,330104.7,BMPNF2epqC,incremental,anketa,6645cf40bc81b65c5faccf1d,participant,hcpib7dulz8oyvjr,,,,,U sutra ne samo svatko jedan može gledati.,Ne može svatko gledati u sutra.,nf,,,45,,,
,inter-stimulus,canvas.Screen,2_28_5,,,,,,response,507.0000000476721,330084.5,330091.4,330104.7,330611.7000000477,330613.2000000477,2024-07-30T17:33:49.111Z,330638.2,BMPNF2epqC,incremental,anketa,6645cf40bc81b65c5faccf1d,participant,hcpib7dulz8oyvjr,,,mousedown,,U sutra ne samo svatko jedan može gledati.,Ne može svatko gledati u sutra.,nf,,,45,,,
,Sequence,flow.Sequence,2_28,,,,,,completion,5935.600000047707,324656.30000019073,324662.8,324676.1,330611.7000000477,330613.2000000477,2024-07-30T17:33:49.111Z,330638.2,BMPNF2epqC,incremental,anketa,6645cf40bc81b65c5faccf1d,participant,hcpib7dulz8oyvjr,,,,,U sutra ne samo svatko jedan može gledati.,Ne može svatko gledati u sutra.,nf,,,45,,,
,context,canvas.Screen,2_29_0_0,,,,,,response,4038.100000190723,330613.5,330624.9,330638.2,334676.30000019073,334676.90000009537,2024-07-30T17:33:53.175Z,334679.7,BMPNF2epqC,incremental,anketa,6645cf40bc81b65c5faccf1d,participant,hcpib7dulz8oyvjr,,,click,,Sanjam dvorac iz kojeg se čuje glasan plač daleko..,Sanjam dvorac daleko iz kojeg se čuje glasan plač..,ai,30,37,26,,,
,Timer frame,html.Frame,2_29_0,,,,,,,4038.700000095356,330613.40000009537,330624.9,330638.2,334676.90000009537,334677,2024-07-30T17:33:53.175Z,334679.7,BMPNF2epqC,incremental,anketa,6645cf40bc81b65c5faccf1d,participant,hcpib7dulz8oyvjr,,,,,Sanjam dvorac iz kojeg se čuje glasan plač daleko..,Sanjam dvorac daleko iz kojeg se čuje glasan plač..,ai,30,37,26,,,
