meta,sender,sender_type,sender_id,age,gender-birth,education,croatian-knowledge,occupation,,ended_on,duration,time_run,time_render,time_show,time_end,time_commit,timestamp,time_switch,openLabId,type,task,project,status,code,confirmationCode,response,response_action,answer_true,stimulus,context,island_type,transfer_s,transfer_c,id,right_answer,question
"{""labjs_version"":""20.2.4"",""labjs_build"":{""flavor"":""production"",""commit"":""f5b4a49f956347addd546a832a3327688c2c0fef""},""location"":""https://open-lab.online/test/anketa/664d05ae1edf7d6ac4e9e3f2"",""userAgent"":""Mozilla/5.0 (Windows NT 10.0; Win64; x64) AppleWebKit/537.36 (KHTML, like Gecko) Chrome/125.0.0.0 Safari/537.36"",""platform"":""Win32"",""language"":""en-US"",""locale"":""en-US"",""timeZone"":""Europe/Zagreb"",""timezoneOffset"":-120,""screen_width"":1536,""screen_height"":864,""scroll_width"":1312,""scroll_height"":692,""window_innerWidth"":1312,""window_innerHeight"":740,""devicePixelRatio"":1.25}",Demography form,html.Form,0,42,male,master,mother-tongue,Softverski inženjer,,form submission,36038.76800002384,1700.300000011921,1724.832,1724.832,37763.60000002384,37764.60000002384,2024-05-21T20:36:36.870Z,37775,Dh-x6F29Zl,incremental,anketa,6645cf40bc81b65c5faccf1d,participant,hcpibl38lwguulk9,458957,,,,,,,,,,,
,context,canvas.Screen,1_0,,,,,,,response,5635.600000023842,37765.19999998808,37758.288,37775,43410.60000002384,43411.80000001192,2024-05-21T20:36:42.517Z,43441.7,Dh-x6F29Zl,incremental,anketa,6645cf40bc81b65c5faccf1d,participant,hcpibl38lwguulk9,,,click,,,,,,,,,
,stimulus,canvas.Screen,1_1,,,,,,,response,38067.100000011924,43412,43408.324,43441.7,81508.80000001192,81512.39999997616,2024-05-21T20:37:20.618Z,81525.2,Dh-x6F29Zl,incremental,anketa,6645cf40bc81b65c5faccf1d,participant,hcpibl38lwguulk9,,5,click @5,,,,,,,,,
,inter-stimulus,canvas.Screen,1_2,,,,,,,response,9299.199999976161,81512.60000002384,81508.378,81525.2,90824.39999997616,90825.80000001192,2024-05-21T20:37:29.931Z,90841.9,Dh-x6F29Zl,incremental,anketa,6645cf40bc81b65c5faccf1d,participant,hcpibl38lwguulk9,,,mousedown,,,,,,,,,
,context,canvas.Screen,1_3,,,,,,,response,6090.700000023848,90825.89999997616,90825.224,90841.9,96932.60000002384,96933.5,2024-05-21T20:37:36.039Z,96958.5,Dh-x6F29Zl,incremental,anketa,6645cf40bc81b65c5faccf1d,participant,hcpibl38lwguulk9,,,click,,,,,,,,,
,stimulus,canvas.Screen,1_4,,,,,,,response,15664.600000023842,96933.60000002384,96925.254,96958.5,112623.10000002384,112624.10000002384,2024-05-21T20:37:51.729Z,112642.7,Dh-x6F29Zl,incremental,anketa,6645cf40bc81b65c5faccf1d,participant,hcpibl38lwguulk9,,1,click @1,,,,,,,,,
,inter-stimulus,canvas.Screen,1_5,,,,,,,response,2342.699999976161,112624.19999998808,112624.986,112642.7,114985.39999997616,114987.39999997616,2024-05-21T20:37:54.093Z,114992.1,Dh-x6F29Zl,incremental,anketa,6645cf40bc81b65c5faccf1d,participant,hcpibl38lwguulk9,,,mousedown,,,,,,,,,
,context,canvas.Screen,1_6,,,,,,,response,6390.599999988073,114987.89999997616,114992.056,114992.1,121382.69999998808,121383.80000001192,2024-05-21T20:38:00.489Z,121408.6,Dh-x6F29Zl,incremental,anketa,6645cf40bc81b65c5faccf1d,participant,hcpibl38lwguulk9,,,click,,,,,,,,,
,stimulus,canvas.Screen,1_7_0,,,,,,,response,9070.000000023836,121387.10000002384,121375.2,121408.6,130478.60000002384,130481.89999997616,2024-05-21T20:38:09.587Z,130491.9,Dh-x6F29Zl,incremental,anketa,6645cf40bc81b65c5faccf1d,participant,hcpibl38lwguulk9,,6,click @6,,,,,,,,,
,Timer frame,html.Frame,1_7,,,,,,,,9073.500000023836,121384.10000002384,121375.2,121408.6,130482.10000002384,130482.89999997616,2024-05-21T20:38:09.588Z,130491.9,Dh-x6F29Zl,incremental,anketa,6645cf40bc81b65c5faccf1d,participant,hcpibl38lwguulk9,,,,,,,,,,,,
,Screen,canvas.Screen,1_8,,,,,,,response,7045.999999976164,130483.10000002384,130475.392,130491.9,137537.89999997616,137539.30000001192,2024-05-21T20:38:16.644Z,137558.6,Dh-x6F29Zl,incremental,anketa,6645cf40bc81b65c5faccf1d,participant,hcpibl38lwguulk9,,,mousedown,,,,,,,,,
,Question form,html.Form,1_9,,,,,,,form submission,9513.799999976152,137539.5,137542.05,137558.6,147072.39999997616,147072.80000001192,2024-05-21T20:38:26.177Z,147075.548,Dh-x6F29Zl,incremental,anketa,6645cf40bc81b65c5faccf1d,participant,hcpibl38lwguulk9,,,,Zrele,,,,,,,,
,Screen,canvas.Screen,1_10,,,,,,,response,3281.252000011911,147074.60000002384,147075.548,147075.548,150356.80000001192,150357.89999997616,2024-05-21T20:38:29.463Z,150375.4,Dh-x6F29Zl,incremental,anketa,6645cf40bc81b65c5faccf1d,participant,hcpibl38lwguulk9,,,mousedown,,,,,,,,,
,inter-stimulus,canvas.Screen,1_11,,,,,,,response,4842.799999988085,150358.10000002384,150358.916,150375.4,155218.19999998808,155219.39999997616,2024-05-21T20:38:34.324Z,155225.588,Dh-x6F29Zl,incremental,anketa,6645cf40bc81b65c5faccf1d,participant,hcpibl38lwguulk9,,,mousedown,,,,,,,,,
,First stimuli,flow.Sequence,1,,,,,,,completion,117443.19999998808,37765.19999998808,37758.288,37775,155218.19999998808,155221.89999997616,2024-05-21T20:38:34.327Z,155225.588,Dh-x6F29Zl,incremental,anketa,6645cf40bc81b65c5faccf1d,participant,hcpibl38lwguulk9,,,,,,,,,,,,
,context,canvas.Screen,2_0_0_0,,,,,,,response,3069.1119999880902,155222.39999997616,155225.588,155225.588,158294.69999998808,158296.10000002384,2024-05-21T20:38:37.401Z,158308.6,Dh-x6F29Zl,incremental,anketa,6645cf40bc81b65c5faccf1d,participant,hcpibl38lwguulk9,,,click,,Jedna vrlo duboka tamo postoji pećina.,Tamo postoji jedna vrlo duboka pećina.,lbc,,,37,,
,Timer frame,html.Frame,2_0_0,,,,,,,,3070.712000011932,155222.10000002384,155225.588,155225.588,158296.30000001192,158296.5,2024-05-21T20:38:37.401Z,158308.6,Dh-x6F29Zl,incremental,anketa,6645cf40bc81b65c5faccf1d,participant,hcpibl38lwguulk9,,,,,Jedna vrlo duboka tamo postoji pećina.,Tamo postoji jedna vrlo duboka pećina.,lbc,,,37,,
,stimulus,canvas.Screen,2_0_1_0,,,,,,,response,8072.000000023836,158297.10000002384,158292.074,158308.6,166380.60000002384,166381.60000002384,2024-05-21T20:38:45.486Z,166392,Dh-x6F29Zl,incremental,anketa,6645cf40bc81b65c5faccf1d,participant,hcpibl38lwguulk9,,3,click @3,,Jedna vrlo duboka tamo postoji pećina.,Tamo postoji jedna vrlo duboka pećina.,lbc,,,37,,
,Timer frame,html.Frame,2_0_1,,,,,,,,8073.099999988073,158296.69999998808,158292.074,158308.6,166381.69999998808,166382.39999997616,2024-05-21T20:38:45.487Z,166392,Dh-x6F29Zl,incremental,anketa,6645cf40bc81b65c5faccf1d,participant,hcpibl38lwguulk9,,,,,Jedna vrlo duboka tamo postoji pećina.,Tamo postoji jedna vrlo duboka pećina.,lbc,,,37,,
,Spremanje,canvas.Screen,2_0_2,,,,,,,skipped,,166382.5,,,166381.69999998808,166382.60000002384,2024-05-21T20:38:45.487Z,166392,Dh-x6F29Zl,incremental,anketa,6645cf40bc81b65c5faccf1d,participant,hcpibl38lwguulk9,,,,,Jedna vrlo duboka tamo postoji pećina.,Tamo postoji jedna vrlo duboka pećina.,lbc,,,37,,
,Question form,html.Form,2_0_3,,,,,,,skipped,,166382.80000001192,,,166381.69999998808,166382.80000001192,2024-05-21T20:38:45.488Z,166392,Dh-x6F29Zl,incremental,anketa,6645cf40bc81b65c5faccf1d,participant,hcpibl38lwguulk9,,,,,Jedna vrlo duboka tamo postoji pećina.,Tamo postoji jedna vrlo duboka pećina.,lbc,,,37,,
,Answer indication,canvas.Screen,2_0_4,,,,,,,skipped,,166384.19999998808,,,166381.69999998808,166384.30000001192,2024-05-21T20:38:45.489Z,166392,Dh-x6F29Zl,incremental,anketa,6645cf40bc81b65c5faccf1d,participant,hcpibl38lwguulk9,,,,,Jedna vrlo duboka tamo postoji pećina.,Tamo postoji jedna vrlo duboka pećina.,lbc,,,37,,
,inter-stimulus,canvas.Screen,2_0_5,,,,,,,response,3171.800000011921,166384.5,166375.482,166392,169563.80000001192,169565,2024-05-21T20:38:48.670Z,169575.4,Dh-x6F29Zl,incremental,anketa,6645cf40bc81b65c5faccf1d,participant,hcpibl38lwguulk9,,,mousedown,,Jedna vrlo duboka tamo postoji pećina.,Tamo postoji jedna vrlo duboka pećina.,lbc,,,37,,
,Sequence,flow.Sequence,2_0,,,,,,,completion,14338.212000011932,155222.10000002384,155225.588,155225.588,169563.80000001192,169565.19999998808,2024-05-21T20:38:48.670Z,169575.4,Dh-x6F29Zl,incremental,anketa,6645cf40bc81b65c5faccf1d,participant,hcpibl38lwguulk9,,,,,Jedna vrlo duboka tamo postoji pećina.,Tamo postoji jedna vrlo duboka pećina.,lbc,,,37,,
,context,canvas.Screen,2_1_0_0,,,,,,,response,2871.499999976164,169565.60000002384,169558.888,169575.4,172446.89999997616,172447.89999997616,2024-05-21T20:38:51.553Z,172458.7,Dh-x6F29Zl,incremental,anketa,6645cf40bc81b65c5faccf1d,participant,hcpibl38lwguulk9,,,click,,Za kim su banditi imali pitanja?,Ti banditi su imali pitanja za mene.,nf,,,40,,
,Timer frame,html.Frame,2_1_0,,,,,,,,2872.600000000006,169565.39999997616,169558.888,169575.4,172448,172448.10000002384,2024-05-21T20:38:51.553Z,172458.7,Dh-x6F29Zl,incremental,anketa,6645cf40bc81b65c5faccf1d,participant,hcpibl38lwguulk9,,,,,Za kim su banditi imali pitanja?,Ti banditi su imali pitanja za mene.,nf,,,40,,
,stimulus,canvas.Screen,2_1_1_0,,,,,,,response,8817.90000002383,172448.60000002384,172442.126,172458.7,181276.60000002384,181277.5,2024-05-21T20:39:00.382Z,181292.256,Dh-x6F29Zl,incremental,anketa,6645cf40bc81b65c5faccf1d,participant,hcpibl38lwguulk9,,1,click @1,,Za kim su banditi imali pitanja?,Ti banditi su imali pitanja za mene.,nf,,,40,,
,Timer frame,html.Frame,2_1_1,,,,,,,,8818.90000002383,172448.30000001192,172442.126,172458.7,181277.60000002384,181277.80000001192,2024-05-21T20:39:00.382Z,181292.256,Dh-x6F29Zl,incremental,anketa,6645cf40bc81b65c5faccf1d,participant,hcpibl38lwguulk9,,,,,Za kim su banditi imali pitanja?,Ti banditi su imali pitanja za mene.,nf,,,40,,
,Spremanje,canvas.Screen,2_1_2,,,,,,,skipped,,181277.89999997616,,,181277.60000002384,181278,2024-05-21T20:39:00.383Z,181292.256,Dh-x6F29Zl,incremental,anketa,6645cf40bc81b65c5faccf1d,participant,hcpibl38lwguulk9,,,,,Za kim su banditi imali pitanja?,Ti banditi su imali pitanja za mene.,nf,,,40,,
,Question form,html.Form,2_1_3,,,,,,,skipped,,181278.10000002384,,,181277.60000002384,181278.19999998808,2024-05-21T20:39:00.383Z,181292.256,Dh-x6F29Zl,incremental,anketa,6645cf40bc81b65c5faccf1d,participant,hcpibl38lwguulk9,,,,,Za kim su banditi imali pitanja?,Ti banditi su imali pitanja za mene.,nf,,,40,,
,Answer indication,canvas.Screen,2_1_4,,,,,,,skipped,,181279.60000002384,,,181277.60000002384,181279.69999998808,2024-05-21T20:39:00.384Z,181292.256,Dh-x6F29Zl,incremental,anketa,6645cf40bc81b65c5faccf1d,participant,hcpibl38lwguulk9,,,,,Za kim su banditi imali pitanja?,Ti banditi su imali pitanja za mene.,nf,,,40,,
,inter-stimulus,canvas.Screen,2_1_5,,,,,,,response,2269.244000000006,181279.80000001192,181292.256,181292.256,183561.5,183562.80000001192,2024-05-21T20:39:02.668Z,183575.5,Dh-x6F29Zl,incremental,anketa,6645cf40bc81b65c5faccf1d,participant,hcpibl38lwguulk9,,,mousedown,,Za kim su banditi imali pitanja?,Ti banditi su imali pitanja za mene.,nf,,,40,,
,Sequence,flow.Sequence,2_1,,,,,,,completion,13986.100000000006,169565.39999997616,169558.888,169575.4,183561.5,183563.10000002384,2024-05-21T20:39:02.669Z,183575.5,Dh-x6F29Zl,incremental,anketa,6645cf40bc81b65c5faccf1d,participant,hcpibl38lwguulk9,,,,,Za kim su banditi imali pitanja?,Ti banditi su imali pitanja za mene.,nf,,,40,,
,context,canvas.Screen,2_2_0_0,,,,,,,response,4815.100000023842,183563.5,183558.922,183575.5,188390.60000002384,188391.60000002384,2024-05-21T20:39:07.497Z,188408.8,Dh-x6F29Zl,incremental,anketa,6645cf40bc81b65c5faccf1d,participant,hcpibl38lwguulk9,,,click,,Kad je Lena pronašla honorarni posao?,Lena je pronašla honorarni posao ubrzo nakon praznika..,gf,,32,51,,
,Timer frame,html.Frame,2_2_0,,,,,,,,4816.300000011921,183563.30000001192,183558.922,183575.5,188391.80000001192,188391.89999997616,2024-05-21T20:39:07.497Z,188408.8,Dh-x6F29Zl,incremental,anketa,6645cf40bc81b65c5faccf1d,participant,hcpibl38lwguulk9,,,,,Kad je Lena pronašla honorarni posao?,Lena je pronašla honorarni posao ubrzo nakon praznika..,gf,,32,51,,
,stimulus,canvas.Screen,2_2_1_0,,,,,,,response,9538.09999997617,188392.30000001192,188392.232,188408.8,197946.89999997616,197948.10000002384,2024-05-21T20:39:17.054Z,197975.6,Dh-x6F29Zl,incremental,anketa,6645cf40bc81b65c5faccf1d,participant,hcpibl38lwguulk9,,7,click @7,,Kad je Lena pronašla honorarni posao?,Lena je pronašla honorarni posao ubrzo nakon praznika..,gf,,32,51,,
,Timer frame,html.Frame,2_2_1,,,,,,,,9539.39999998809,188392,188392.232,188408.8,197948.19999998808,197948.39999997616,2024-05-21T20:39:17.054Z,197975.6,Dh-x6F29Zl,incremental,anketa,6645cf40bc81b65c5faccf1d,participant,hcpibl38lwguulk9,,,,,Kad je Lena pronašla honorarni posao?,Lena je pronašla honorarni posao ubrzo nakon praznika..,gf,,32,51,,
,Spremanje,canvas.Screen,2_2_2,,,,,,,skipped,,197948.5,,,197948.19999998808,197948.60000002384,2024-05-21T20:39:17.054Z,197975.6,Dh-x6F29Zl,incremental,anketa,6645cf40bc81b65c5faccf1d,participant,hcpibl38lwguulk9,,,,,Kad je Lena pronašla honorarni posao?,Lena je pronašla honorarni posao ubrzo nakon praznika..,gf,,32,51,,
,Question form,html.Form,2_2_3,,,,,,,skipped,,197948.69999998808,,,197948.19999998808,197948.80000001192,2024-05-21T20:39:17.054Z,197975.6,Dh-x6F29Zl,incremental,anketa,6645cf40bc81b65c5faccf1d,participant,hcpibl38lwguulk9,,,,,Kad je Lena pronašla honorarni posao?,Lena je pronašla honorarni posao ubrzo nakon praznika..,gf,,32,51,,
,Answer indication,canvas.Screen,2_2_4,,,,,,,skipped,,197949.80000001192,,,197948.19999998808,197950,2024-05-21T20:39:17.055Z,197975.6,Dh-x6F29Zl,incremental,anketa,6645cf40bc81b65c5faccf1d,participant,hcpibl38lwguulk9,,,,,Kad je Lena pronašla honorarni posao?,Lena je pronašla honorarni posao ubrzo nakon praznika..,gf,,32,51,,
,inter-stimulus,canvas.Screen,2_2_5,,,,,,,response,2521.700000011915,197950.10000002384,197959.008,197975.6,200497.30000001192,200498.5,2024-05-21T20:39:19.604Z,200508.8,Dh-x6F29Zl,incremental,anketa,6645cf40bc81b65c5faccf1d,participant,hcpibl38lwguulk9,,,mousedown,,Kad je Lena pronašla honorarni posao?,Lena je pronašla honorarni posao ubrzo nakon praznika..,gf,,32,51,,
,Sequence,flow.Sequence,2_2,,,,,,,completion,16921.80000001192,183563.19999998808,183558.922,183575.5,200497.30000001192,200498.80000001192,2024-05-21T20:39:19.604Z,200508.8,Dh-x6F29Zl,incremental,anketa,6645cf40bc81b65c5faccf1d,participant,hcpibl38lwguulk9,,,,,Kad je Lena pronašla honorarni posao?,Lena je pronašla honorarni posao ubrzo nakon praznika..,gf,,32,51,,
,context,canvas.Screen,2_3_0_0,,,,,,,response,3021.8999999880907,200499.19999998808,200492.328,200508.8,203530.69999998808,203531.5,2024-05-21T20:39:22.637Z,203542.2,Dh-x6F29Zl,incremental,anketa,6645cf40bc81b65c5faccf1d,participant,hcpibl38lwguulk9,,,click,,Stare su samo Čehovljeve priče bile u ovoj knjižnici..,Samo su Čehovljeve priče bile stare u ovoj knjižnici..,di,35,35,33,,
,Timer frame,html.Frame,2_3_0,,,,,,,,3022.8000000238535,200499,200492.328,200508.8,203531.60000002384,203531.69999998808,2024-05-21T20:39:22.637Z,203542.2,Dh-x6F29Zl,incremental,anketa,6645cf40bc81b65c5faccf1d,participant,hcpibl38lwguulk9,,,,,Stare su samo Čehovljeve priče bile u ovoj knjižnici..,Samo su Čehovljeve priče bile stare u ovoj knjižnici..,di,35,35,33,,
,stimulus,canvas.Screen,2_3_1_0,,,,,,,response,9938.40000002383,203532.19999998808,203542.132,203542.2,213480.60000002384,213481.5,2024-05-21T20:39:32.587Z,213492.2,Dh-x6F29Zl,incremental,anketa,6645cf40bc81b65c5faccf1d,participant,hcpibl38lwguulk9,,3,click @3,,Stare su samo Čehovljeve priče bile u ovoj knjižnici..,Samo su Čehovljeve priče bile stare u ovoj knjižnici..,di,35,35,33,,
,Timer frame,html.Frame,2_3_1,,,,,,,,9939.499999988067,203531.89999997616,203542.132,203542.2,213481.69999998808,213481.80000001192,2024-05-21T20:39:32.587Z,213492.2,Dh-x6F29Zl,incremental,anketa,6645cf40bc81b65c5faccf1d,participant,hcpibl38lwguulk9,,,,,Stare su samo Čehovljeve priče bile u ovoj knjižnici..,Samo su Čehovljeve priče bile stare u ovoj knjižnici..,di,35,35,33,,
,Spremanje,canvas.Screen,2_3_2,,,,,,,skipped,,213481.89999997616,,,213481.69999998808,213482,2024-05-21T20:39:32.588Z,213492.2,Dh-x6F29Zl,incremental,anketa,6645cf40bc81b65c5faccf1d,participant,hcpibl38lwguulk9,,,,,Stare su samo Čehovljeve priče bile u ovoj knjižnici..,Samo su Čehovljeve priče bile stare u ovoj knjižnici..,di,35,35,33,,
,Question form,html.Form,2_3_3,,,,,,,skipped,,213482.10000002384,,,213481.69999998808,213482.19999998808,2024-05-21T20:39:32.588Z,213492.2,Dh-x6F29Zl,incremental,anketa,6645cf40bc81b65c5faccf1d,participant,hcpibl38lwguulk9,,,,,Stare su samo Čehovljeve priče bile u ovoj knjižnici..,Samo su Čehovljeve priče bile stare u ovoj knjižnici..,di,35,35,33,,
,Answer indication,canvas.Screen,2_3_4,,,,,,,skipped,,213483.19999998808,,,213481.69999998808,213483.19999998808,2024-05-21T20:39:32.589Z,213492.2,Dh-x6F29Zl,incremental,anketa,6645cf40bc81b65c5faccf1d,participant,hcpibl38lwguulk9,,,,,Stare su samo Čehovljeve priče bile u ovoj knjižnici..,Samo su Čehovljeve priče bile stare u ovoj knjižnici..,di,35,35,33,,
,inter-stimulus,canvas.Screen,2_3_5,,,,,,,response,2027.4999999880674,213483.39999997616,213475.73,213492.2,215519.69999998808,215520.89999997616,2024-05-21T20:39:34.626Z,215525.6,Dh-x6F29Zl,incremental,anketa,6645cf40bc81b65c5faccf1d,participant,hcpibl38lwguulk9,,,mousedown,,Stare su samo Čehovljeve priče bile u ovoj knjižnici..,Samo su Čehovljeve priče bile stare u ovoj knjižnici..,di,35,35,33,,
,Sequence,flow.Sequence,2_3,,,,,,,completion,15010.89999998809,200498.80000001192,200492.328,200508.8,215519.69999998808,215521.30000001192,2024-05-21T20:39:34.627Z,215525.6,Dh-x6F29Zl,incremental,anketa,6645cf40bc81b65c5faccf1d,participant,hcpibl38lwguulk9,,,,,Stare su samo Čehovljeve priče bile u ovoj knjižnici..,Samo su Čehovljeve priče bile stare u ovoj knjižnici..,di,35,35,33,,
,context,canvas.Screen,2_4_0_0,,,,,,,response,5745.000000023836,215521.60000002384,215509.058,215525.6,221270.60000002384,221271.39999997616,2024-05-21T20:39:40.377Z,221275.7,Dh-x6F29Zl,incremental,anketa,6645cf40bc81b65c5faccf1d,participant,hcpibl38lwguulk9,,,click,,Na što je teško prestati besmisleno bacati novac?,Teško je prestati besmisleno bacati novac na tenisice.,si,,,13,,
,Timer frame,html.Frame,2_4_0,,,,,,,,5746.000000023836,215521.39999997616,215509.058,215525.6,221271.60000002384,221271.69999998808,2024-05-21T20:39:40.377Z,221275.7,Dh-x6F29Zl,incremental,anketa,6645cf40bc81b65c5faccf1d,participant,hcpibl38lwguulk9,,,,,Na što je teško prestati besmisleno bacati novac?,Teško je prestati besmisleno bacati novac na tenisice.,si,,,13,,
,stimulus,canvas.Screen,2_4_1_0,,,,,,,response,9150.90000002383,221272.10000002384,221259.066,221275.7,230426.60000002384,230427.60000002384,2024-05-21T20:39:49.533Z,230442.2,Dh-x6F29Zl,incremental,anketa,6645cf40bc81b65c5faccf1d,participant,hcpibl38lwguulk9,,6,click @6,,Na što je teško prestati besmisleno bacati novac?,Teško je prestati besmisleno bacati novac na tenisice.,si,,,13,,
,Timer frame,html.Frame,2_4_1,,,,,,,,9152.10000001191,221271.89999997616,221259.066,221275.7,230427.80000001192,230427.89999997616,2024-05-21T20:39:49.533Z,230442.2,Dh-x6F29Zl,incremental,anketa,6645cf40bc81b65c5faccf1d,participant,hcpibl38lwguulk9,,,,,Na što je teško prestati besmisleno bacati novac?,Teško je prestati besmisleno bacati novac na tenisice.,si,,,13,,
,Spremanje,canvas.Screen,2_4_2,,,,,,,skipped,,230428,,,230427.80000001192,230428,2024-05-21T20:39:49.534Z,230442.2,Dh-x6F29Zl,incremental,anketa,6645cf40bc81b65c5faccf1d,participant,hcpibl38lwguulk9,,,,,Na što je teško prestati besmisleno bacati novac?,Teško je prestati besmisleno bacati novac na tenisice.,si,,,13,,
,Question form,html.Form,2_4_3,,,,,,,skipped,,230428.10000002384,,,230427.80000001192,230428.19999998808,2024-05-21T20:39:49.534Z,230442.2,Dh-x6F29Zl,incremental,anketa,6645cf40bc81b65c5faccf1d,participant,hcpibl38lwguulk9,,,,,Na što je teško prestati besmisleno bacati novac?,Teško je prestati besmisleno bacati novac na tenisice.,si,,,13,,
,Answer indication,canvas.Screen,2_4_4,,,,,,,skipped,,230429,,,230427.80000001192,230429.10000002384,2024-05-21T20:39:49.535Z,230442.2,Dh-x6F29Zl,incremental,anketa,6645cf40bc81b65c5faccf1d,participant,hcpibl38lwguulk9,,,,,Na što je teško prestati besmisleno bacati novac?,Teško je prestati besmisleno bacati novac na tenisice.,si,,,13,,
,inter-stimulus,canvas.Screen,2_4_5,,,,,,,response,3401.6000000119093,230429.30000001192,230425.762,230442.2,233843.80000001192,233844.89999997616,2024-05-21T20:39:52.950Z,233859,Dh-x6F29Zl,incremental,anketa,6645cf40bc81b65c5faccf1d,participant,hcpibl38lwguulk9,,,mousedown,,Na što je teško prestati besmisleno bacati novac?,Teško je prestati besmisleno bacati novac na tenisice.,si,,,13,,
,Sequence,flow.Sequence,2_4,,,,,,,completion,18318.200000011915,215521.30000001192,215509.058,215525.6,233843.80000001192,233845.10000002384,2024-05-21T20:39:52.951Z,233859,Dh-x6F29Zl,incremental,anketa,6645cf40bc81b65c5faccf1d,participant,hcpibl38lwguulk9,,,,,Na što je teško prestati besmisleno bacati novac?,Teško je prestati besmisleno bacati novac na tenisice.,si,,,13,,
,context,canvas.Screen,2_5_0_0,,,,,,,response,2315.600000023842,233845.5,233842.492,233859,236174.60000002384,236175.89999997616,2024-05-21T20:39:55.281Z,236192.3,Dh-x6F29Zl,incremental,anketa,6645cf40bc81b65c5faccf1d,participant,hcpibl38lwguulk9,,,click,,"Kamo da ne odeš gladan, doručkovao si?",Doručkovao si da ne odeš gladan u planine.,ai,,,21,,
,Timer frame,html.Frame,2_5_0,,,,,,,,2317.100000023842,233845.19999998808,233842.492,233859,236176.10000002384,236176.30000001192,2024-05-21T20:39:55.282Z,236192.3,Dh-x6F29Zl,incremental,anketa,6645cf40bc81b65c5faccf1d,participant,hcpibl38lwguulk9,,,,,"Kamo da ne odeš gladan, doručkovao si?",Doručkovao si da ne odeš gladan u planine.,ai,,,21,,
,stimulus,canvas.Screen,2_5_1_0,,,,,,,response,5996.399999988091,236176.60000002384,236175.732,236192.3,242188.69999998808,242189.60000002384,2024-05-21T20:40:01.295Z,242209,Dh-x6F29Zl,incremental,anketa,6645cf40bc81b65c5faccf1d,participant,hcpibl38lwguulk9,,2,click @2,,"Kamo da ne odeš gladan, doručkovao si?",Doručkovao si da ne odeš gladan u planine.,ai,,,21,,
,Timer frame,html.Frame,2_5_1,,,,,,,,5997.399999988091,236176.39999997616,236175.732,236192.3,242189.69999998808,242189.80000001192,2024-05-21T20:40:01.295Z,242209,Dh-x6F29Zl,incremental,anketa,6645cf40bc81b65c5faccf1d,participant,hcpibl38lwguulk9,,,,,"Kamo da ne odeš gladan, doručkovao si?",Doručkovao si da ne odeš gladan u planine.,ai,,,21,,
,Spremanje,canvas.Screen,2_5_2,,,,,,,skipped,,242190,,,242189.69999998808,242190,2024-05-21T20:40:01.295Z,242209,Dh-x6F29Zl,incremental,anketa,6645cf40bc81b65c5faccf1d,participant,hcpibl38lwguulk9,,,,,"Kamo da ne odeš gladan, doručkovao si?",Doručkovao si da ne odeš gladan u planine.,ai,,,21,,
,Question form,html.Form,2_5_3,,,,,,,skipped,,242190.10000002384,,,242189.69999998808,242190.19999998808,2024-05-21T20:40:01.296Z,242209,Dh-x6F29Zl,incremental,anketa,6645cf40bc81b65c5faccf1d,participant,hcpibl38lwguulk9,,,,,"Kamo da ne odeš gladan, doručkovao si?",Doručkovao si da ne odeš gladan u planine.,ai,,,21,,
,Answer indication,canvas.Screen,2_5_4,,,,,,,skipped,,242191.10000002384,,,242189.69999998808,242191.19999998808,2024-05-21T20:40:01.297Z,242209,Dh-x6F29Zl,incremental,anketa,6645cf40bc81b65c5faccf1d,participant,hcpibl38lwguulk9,,,,,"Kamo da ne odeš gladan, doručkovao si?",Doručkovao si da ne odeš gladan u planine.,ai,,,21,,
,inter-stimulus,canvas.Screen,2_5_5,,,,,,,response,2648.5,242191.39999997616,242192.49,242209,244857.5,244858.69999998808,2024-05-21T20:40:03.964Z,244875.8,Dh-x6F29Zl,incremental,anketa,6645cf40bc81b65c5faccf1d,participant,hcpibl38lwguulk9,,,mousedown,,"Kamo da ne odeš gladan, doručkovao si?",Doručkovao si da ne odeš gladan u planine.,ai,,,21,,
,Sequence,flow.Sequence,2_5,,,,,,,completion,10998.5,233845.19999998808,233842.492,233859,244857.5,244858.89999997616,2024-05-21T20:40:03.964Z,244875.8,Dh-x6F29Zl,incremental,anketa,6645cf40bc81b65c5faccf1d,participant,hcpibl38lwguulk9,,,,,"Kamo da ne odeš gladan, doručkovao si?",Doručkovao si da ne odeš gladan u planine.,ai,,,21,,
,context,canvas.Screen,2_6_0_0,,,,,,,response,7280.700000000012,244859.19999998808,244859.196,244875.8,252156.5,252157.39999997616,2024-05-21T20:40:11.262Z,252159.196,Dh-x6F29Zl,incremental,anketa,6645cf40bc81b65c5faccf1d,participant,hcpibl38lwguulk9,,,click,,Koliko vidim dječka kojem je ljubazni poštar poklonio bicikla??,Vidim dječaka kojem je ljubazni poštar poklonio dva bicikla..,cnp,37,38,10,,
,Timer frame,html.Frame,2_6_0,,,,,,,,7281.8000000238535,244859,244859.196,244875.8,252157.60000002384,252157.69999998808,2024-05-21T20:40:11.263Z,252159.196,Dh-x6F29Zl,incremental,anketa,6645cf40bc81b65c5faccf1d,participant,hcpibl38lwguulk9,,,,,Koliko vidim dječka kojem je ljubazni poštar poklonio bicikla??,Vidim dječaka kojem je ljubazni poštar poklonio dva bicikla..,cnp,37,38,10,,
,stimulus,canvas.Screen,2_6_1_0,,,,,,,response,5741.503999988083,252158.10000002384,252159.196,252159.196,257900.69999998808,257901.69999998808,2024-05-21T20:40:17.007Z,257909.3,Dh-x6F29Zl,incremental,anketa,6645cf40bc81b65c5faccf1d,participant,hcpibl38lwguulk9,,1,click @1,,Koliko vidim dječka kojem je ljubazni poštar poklonio bicikla??,Vidim dječaka kojem je ljubazni poštar poklonio dva bicikla..,cnp,37,38,10,,
,Timer frame,html.Frame,2_6_1,,,,,,,,5742.604000011925,252157.80000001192,252159.196,252159.196,257901.80000001192,257901.89999997616,2024-05-21T20:40:17.007Z,257909.3,Dh-x6F29Zl,incremental,anketa,6645cf40bc81b65c5faccf1d,participant,hcpibl38lwguulk9,,,,,Koliko vidim dječka kojem je ljubazni poštar poklonio bicikla??,Vidim dječaka kojem je ljubazni poštar poklonio dva bicikla..,cnp,37,38,10,,
,Spremanje,canvas.Screen,2_6_2,,,,,,,skipped,,257902,,,257901.80000001192,257902,2024-05-21T20:40:17.007Z,257909.3,Dh-x6F29Zl,incremental,anketa,6645cf40bc81b65c5faccf1d,participant,hcpibl38lwguulk9,,,,,Koliko vidim dječka kojem je ljubazni poštar poklonio bicikla??,Vidim dječaka kojem je ljubazni poštar poklonio dva bicikla..,cnp,37,38,10,,
,Question form,html.Form,2_6_3,,,,,,,skipped,,257902.10000002384,,,257901.80000001192,257902.19999998808,2024-05-21T20:40:17.007Z,257909.3,Dh-x6F29Zl,incremental,anketa,6645cf40bc81b65c5faccf1d,participant,hcpibl38lwguulk9,,,,,Koliko vidim dječka kojem je ljubazni poštar poklonio bicikla??,Vidim dječaka kojem je ljubazni poštar poklonio dva bicikla..,cnp,37,38,10,,
,Answer indication,canvas.Screen,2_6_4,,,,,,,skipped,,257903.10000002384,,,257901.80000001192,257903.19999998808,2024-05-21T20:40:17.008Z,257909.3,Dh-x6F29Zl,incremental,anketa,6645cf40bc81b65c5faccf1d,participant,hcpibl38lwguulk9,,,,,Koliko vidim dječka kojem je ljubazni poštar poklonio bicikla??,Vidim dječaka kojem je ljubazni poštar poklonio dva bicikla..,cnp,37,38,10,,
,inter-stimulus,canvas.Screen,2_6_5,,,,,,,response,1588.5999999761698,257903.30000001192,257909.244,257909.3,259497.89999997616,259499.10000002384,2024-05-21T20:40:18.604Z,259509,Dh-x6F29Zl,incremental,anketa,6645cf40bc81b65c5faccf1d,participant,hcpibl38lwguulk9,,,mousedown,,Koliko vidim dječka kojem je ljubazni poštar poklonio bicikla??,Vidim dječaka kojem je ljubazni poštar poklonio dva bicikla..,cnp,37,38,10,,
,Sequence,flow.Sequence,2_6,,,,,,,completion,14622.09999997617,244859,244859.196,244875.8,259497.89999997616,259499.39999997616,2024-05-21T20:40:18.604Z,259509,Dh-x6F29Zl,incremental,anketa,6645cf40bc81b65c5faccf1d,participant,hcpibl38lwguulk9,,,,,Koliko vidim dječka kojem je ljubazni poštar poklonio bicikla??,Vidim dječaka kojem je ljubazni poštar poklonio dva bicikla..,cnp,37,38,10,,
,context,canvas.Screen,2_7_0_0,,,,,,,response,4397.699999988079,259499.80000001192,259492.682,259509,263906.6999999881,263907.5,2024-05-21T20:40:23.013Z,263925.7,Dh-x6F29Zl,incremental,anketa,6645cf40bc81b65c5faccf1d,participant,hcpibl38lwguulk9,,,click,,"Tko se nadaš da će napraviti prezentaciju, a Đure nacrtati sliku??","Nadaš se da će Vesna napraviti prezentaciju, a Đure nacrtati sliku..",csi,42,44,2,,
,Timer frame,html.Frame,2_7_0,,,,,,,,4398.699999988079,259499.5,259492.682,259509,263907.6999999881,263907.8000000119,2024-05-21T20:40:23.013Z,263925.7,Dh-x6F29Zl,incremental,anketa,6645cf40bc81b65c5faccf1d,participant,hcpibl38lwguulk9,,,,,"Tko se nadaš da će napraviti prezentaciju, a Đure nacrtati sliku??","Nadaš se da će Vesna napraviti prezentaciju, a Đure nacrtati sliku..",csi,42,44,2,,
,stimulus,canvas.Screen,2_7_1_0,,,,,,,response,8167.100000011909,263908.1999999881,263909.166,263925.7,272092.8000000119,272093.8000000119,2024-05-21T20:40:31.199Z,272109.3,Dh-x6F29Zl,incremental,anketa,6645cf40bc81b65c5faccf1d,participant,hcpibl38lwguulk9,,3,click @3,,"Tko se nadaš da će napraviti prezentaciju, a Đure nacrtati sliku??","Nadaš se da će Vesna napraviti prezentaciju, a Đure nacrtati sliku..",csi,42,44,2,,
,Timer frame,html.Frame,2_7_1,,,,,,,,8168.299999999988,263907.89999997616,263909.166,263925.7,272094,272094.10000002384,2024-05-21T20:40:31.199Z,272109.3,Dh-x6F29Zl,incremental,anketa,6645cf40bc81b65c5faccf1d,participant,hcpibl38lwguulk9,,,,,"Tko se nadaš da će napraviti prezentaciju, a Đure nacrtati sliku??","Nadaš se da će Vesna napraviti prezentaciju, a Đure nacrtati sliku..",csi,42,44,2,,
,Spremanje,canvas.Screen,2_7_2,,,,,,,skipped,,272094.1999999881,,,272094,272094.3000000119,2024-05-21T20:40:31.199Z,272109.3,Dh-x6F29Zl,incremental,anketa,6645cf40bc81b65c5faccf1d,participant,hcpibl38lwguulk9,,,,,"Tko se nadaš da će napraviti prezentaciju, a Đure nacrtati sliku??","Nadaš se da će Vesna napraviti prezentaciju, a Đure nacrtati sliku..",csi,42,44,2,,
,Question form,html.Form,2_7_3,,,,,,,skipped,,272094.3000000119,,,272094,272094.5,2024-05-21T20:40:31.199Z,272109.3,Dh-x6F29Zl,incremental,anketa,6645cf40bc81b65c5faccf1d,participant,hcpibl38lwguulk9,,,,,"Tko se nadaš da će napraviti prezentaciju, a Đure nacrtati sliku??","Nadaš se da će Vesna napraviti prezentaciju, a Đure nacrtati sliku..",csi,42,44,2,,
,Answer indication,canvas.Screen,2_7_4,,,,,,,skipped,,272095.39999997616,,,272094,272095.39999997616,2024-05-21T20:40:31.200Z,272109.3,Dh-x6F29Zl,incremental,anketa,6645cf40bc81b65c5faccf1d,participant,hcpibl38lwguulk9,,,,,"Tko se nadaš da će napraviti prezentaciju, a Đure nacrtati sliku??","Nadaš se da će Vesna napraviti prezentaciju, a Đure nacrtati sliku..",csi,42,44,2,,
,inter-stimulus,canvas.Screen,2_7_5,,,,,,,response,1414.0999999761698,272095.60000002384,272092.764,272109.3,273523.39999997616,273524.6999999881,2024-05-21T20:40:32.630Z,273542.5,Dh-x6F29Zl,incremental,anketa,6645cf40bc81b65c5faccf1d,participant,hcpibl38lwguulk9,,,mousedown,,"Tko se nadaš da će napraviti prezentaciju, a Đure nacrtati sliku??","Nadaš se da će Vesna napraviti prezentaciju, a Đure nacrtati sliku..",csi,42,44,2,,
,Sequence,flow.Sequence,2_7,,,,,,,completion,14014.399999976158,259499.5,259492.682,259509,273523.39999997616,273525,2024-05-21T20:40:32.630Z,273542.5,Dh-x6F29Zl,incremental,anketa,6645cf40bc81b65c5faccf1d,participant,hcpibl38lwguulk9,,,,,"Tko se nadaš da će napraviti prezentaciju, a Đure nacrtati sliku??","Nadaš se da će Vesna napraviti prezentaciju, a Đure nacrtati sliku..",csi,42,44,2,,
,context,canvas.Screen,2_8_0_0,,,,,,,response,2240.100000023842,273525.39999997616,273525.996,273542.5,275782.60000002384,275783.5,2024-05-21T20:40:34.889Z,275809.3,Dh-x6F29Zl,incremental,anketa,6645cf40bc81b65c5faccf1d,participant,hcpibl38lwguulk9,,,click,,Odakle si pješke ići prema Zadru?,Ideš pješke od Splita prema Zadru.,nf,,,44,,
,Timer frame,html.Frame,2_8_0,,,,,,,,2241.199999988079,273525.1999999881,273525.996,273542.5,275783.6999999881,275783.8000000119,2024-05-21T20:40:34.889Z,275809.3,Dh-x6F29Zl,incremental,anketa,6645cf40bc81b65c5faccf1d,participant,hcpibl38lwguulk9,,,,,Odakle si pješke ići prema Zadru?,Ideš pješke od Splita prema Zadru.,nf,,,44,,
,stimulus,canvas.Screen,2_8_1_0,,,,,,,response,4263.399999988091,275784.10000002384,275792.762,275809.3,280072.6999999881,280073.89999997616,2024-05-21T20:40:39.179Z,280092.7,Dh-x6F29Zl,incremental,anketa,6645cf40bc81b65c5faccf1d,participant,hcpibl38lwguulk9,,1,click @1,,Odakle si pješke ići prema Zadru?,Ideš pješke od Splita prema Zadru.,nf,,,44,,
,Timer frame,html.Frame,2_8_1,,,,,,,,4264.700000000012,275783.89999997616,275792.762,275809.3,280074,280074.1999999881,2024-05-21T20:40:39.179Z,280092.7,Dh-x6F29Zl,incremental,anketa,6645cf40bc81b65c5faccf1d,participant,hcpibl38lwguulk9,,,,,Odakle si pješke ići prema Zadru?,Ideš pješke od Splita prema Zadru.,nf,,,44,,
,Spremanje,canvas.Screen,2_8_2,,,,,,,skipped,,280074.3000000119,,,280074,280074.3000000119,2024-05-21T20:40:39.179Z,280092.7,Dh-x6F29Zl,incremental,anketa,6645cf40bc81b65c5faccf1d,participant,hcpibl38lwguulk9,,,,,Odakle si pješke ići prema Zadru?,Ideš pješke od Splita prema Zadru.,nf,,,44,,
,Question form,html.Form,2_8_3,,,,,,,skipped,,280074.39999997616,,,280074,280074.5,2024-05-21T20:40:39.180Z,280092.7,Dh-x6F29Zl,incremental,anketa,6645cf40bc81b65c5faccf1d,participant,hcpibl38lwguulk9,,,,,Odakle si pješke ići prema Zadru?,Ideš pješke od Splita prema Zadru.,nf,,,44,,
,Answer indication,canvas.Screen,2_8_4,,,,,,,skipped,,280075.89999997616,,,280074,280076.10000002384,2024-05-21T20:40:39.181Z,280092.7,Dh-x6F29Zl,incremental,anketa,6645cf40bc81b65c5faccf1d,participant,hcpibl38lwguulk9,,,,,Odakle si pješke ići prema Zadru?,Ideš pješke od Splita prema Zadru.,nf,,,44,,
,inter-stimulus,canvas.Screen,2_8_5,,,,,,,response,1747.1999999761465,280076.1999999881,280075.9,280092.7,281839.89999997616,281841,2024-05-21T20:40:40.946Z,281859.7,Dh-x6F29Zl,incremental,anketa,6645cf40bc81b65c5faccf1d,participant,hcpibl38lwguulk9,,,mousedown,,Odakle si pješke ići prema Zadru?,Ideš pješke od Splita prema Zadru.,nf,,,44,,
,Sequence,flow.Sequence,2_8,,,,,,,completion,8297.399999976158,273525.10000002384,273525.996,273542.5,281839.89999997616,281841.3000000119,2024-05-21T20:40:40.946Z,281859.7,Dh-x6F29Zl,incremental,anketa,6645cf40bc81b65c5faccf1d,participant,hcpibl38lwguulk9,,,,,Odakle si pješke ići prema Zadru?,Ideš pješke od Splita prema Zadru.,nf,,,44,,
,context,canvas.Screen,2_9_0_0,,,,,,,response,2346.90000002383,281841.60000002384,281842.65,281859.7,284206.60000002384,284207.60000002384,2024-05-21T20:40:43.313Z,284225.9,Dh-x6F29Zl,incremental,anketa,6645cf40bc81b65c5faccf1d,participant,hcpibl38lwguulk9,,,click,,Čega je vidjeo muzej i obalu?,On je vidjeo muzej i obalu rijeke.,csi,0,0,1,,
,Timer frame,html.Frame,2_9_0,,,,,,,,2348.1000000119093,281841.39999997616,281842.65,281859.7,284207.8000000119,284207.89999997616,2024-05-21T20:40:43.313Z,284225.9,Dh-x6F29Zl,incremental,anketa,6645cf40bc81b65c5faccf1d,participant,hcpibl38lwguulk9,,,,,Čega je vidjeo muzej i obalu?,On je vidjeo muzej i obalu rijeke.,csi,0,0,1,,
,stimulus,canvas.Screen,2_9_1_0,,,,,,,response,5266.799999988056,284208.1999999881,284209.332,284225.9,289492.6999999881,289493.6999999881,2024-05-21T20:40:48.599Z,289509.3,Dh-x6F29Zl,incremental,anketa,6645cf40bc81b65c5faccf1d,participant,hcpibl38lwguulk9,,1,click @1,,Čega je vidjeo muzej i obalu?,On je vidjeo muzej i obalu rijeke.,csi,0,0,1,,
,Timer frame,html.Frame,2_9_1,,,,,,,,5267.900000011898,284208,284209.332,284225.9,289493.8000000119,289493.89999997616,2024-05-21T20:40:48.599Z,289509.3,Dh-x6F29Zl,incremental,anketa,6645cf40bc81b65c5faccf1d,participant,hcpibl38lwguulk9,,,,,Čega je vidjeo muzej i obalu?,On je vidjeo muzej i obalu rijeke.,csi,0,0,1,,
,Spremanje,canvas.Screen,2_9_2,,,,,,,skipped,,289494,,,289493.8000000119,289494.10000002384,2024-05-21T20:40:48.599Z,289509.3,Dh-x6F29Zl,incremental,anketa,6645cf40bc81b65c5faccf1d,participant,hcpibl38lwguulk9,,,,,Čega je vidjeo muzej i obalu?,On je vidjeo muzej i obalu rijeke.,csi,0,0,1,,
,Question form,html.Form,2_9_3,,,,,,,skipped,,289494.1999999881,,,289493.8000000119,289494.3000000119,2024-05-21T20:40:48.599Z,289509.3,Dh-x6F29Zl,incremental,anketa,6645cf40bc81b65c5faccf1d,participant,hcpibl38lwguulk9,,,,,Čega je vidjeo muzej i obalu?,On je vidjeo muzej i obalu rijeke.,csi,0,0,1,,
,Answer indication,canvas.Screen,2_9_4,,,,,,,skipped,,289495.10000002384,,,289493.8000000119,289495.1999999881,2024-05-21T20:40:48.600Z,289509.3,Dh-x6F29Zl,incremental,anketa,6645cf40bc81b65c5faccf1d,participant,hcpibl38lwguulk9,,,,,Čega je vidjeo muzej i obalu?,On je vidjeo muzej i obalu rijeke.,csi,0,0,1,,
,inter-stimulus,canvas.Screen,2_9_5,,,,,,,response,1817.0000000119326,289495.3000000119,289492.7,289509.3,291326.3000000119,291327.60000002384,2024-05-21T20:40:50.433Z,291342.7,Dh-x6F29Zl,incremental,anketa,6645cf40bc81b65c5faccf1d,participant,hcpibl38lwguulk9,,,mousedown,,Čega je vidjeo muzej i obalu?,On je vidjeo muzej i obalu rijeke.,csi,0,0,1,,
,Sequence,flow.Sequence,2_9,,,,,,,completion,9466.60000001191,281841.39999997616,281842.65,281859.7,291326.3000000119,291327.8000000119,2024-05-21T20:40:50.433Z,291342.7,Dh-x6F29Zl,incremental,anketa,6645cf40bc81b65c5faccf1d,participant,hcpibl38lwguulk9,,,,,Čega je vidjeo muzej i obalu?,On je vidjeo muzej i obalu rijeke.,csi,0,0,1,,
,context,canvas.Screen,2_10_0_0,,,,,,,response,2261.9999999880674,291328.1999999881,291326.2,291342.7,293604.6999999881,293605.60000002384,2024-05-21T20:40:52.711Z,293609.3,Dh-x6F29Zl,incremental,anketa,6645cf40bc81b65c5faccf1d,participant,hcpibl38lwguulk9,,,click,,Ove godine su se Viktor i Marta vjenčao.,Victor i Marta vjenčali su se ove godine.,nf,,,38,,
,Timer frame,html.Frame,2_10_0,,,,,,,,2263.1000000119093,291328,291326.2,291342.7,293605.8000000119,293605.89999997616,2024-05-21T20:40:52.711Z,293609.3,Dh-x6F29Zl,incremental,anketa,6645cf40bc81b65c5faccf1d,participant,hcpibl38lwguulk9,,,,,Ove godine su se Viktor i Marta vjenčao.,Victor i Marta vjenčali su se ove godine.,nf,,,38,,
,stimulus,canvas.Screen,2_10_1_0,,,,,,,response,8153.399999988091,293606.3000000119,293592.8,293609.3,301762.6999999881,301763.6999999881,2024-05-21T20:41:00.869Z,301792.7,Dh-x6F29Zl,incremental,anketa,6645cf40bc81b65c5faccf1d,participant,hcpibl38lwguulk9,,1,click @1,,Ove godine su se Viktor i Marta vjenčao.,Victor i Marta vjenčali su se ove godine.,nf,,,38,,
,Timer frame,html.Frame,2_10_1,,,,,,,,8154.59999997617,293606,293592.8,293609.3,301763.89999997616,301763.89999997616,2024-05-21T20:41:00.869Z,301792.7,Dh-x6F29Zl,incremental,anketa,6645cf40bc81b65c5faccf1d,participant,hcpibl38lwguulk9,,,,,Ove godine su se Viktor i Marta vjenčao.,Victor i Marta vjenčali su se ove godine.,nf,,,38,,
,Spremanje,canvas.Screen,2_10_2,,,,,,,skipped,,301764,,,301763.89999997616,301764.10000002384,2024-05-21T20:41:00.869Z,301792.7,Dh-x6F29Zl,incremental,anketa,6645cf40bc81b65c5faccf1d,participant,hcpibl38lwguulk9,,,,,Ove godine su se Viktor i Marta vjenčao.,Victor i Marta vjenčali su se ove godine.,nf,,,38,,
,Question form,html.Form,2_10_3,,,,,,,skipped,,301764.1999999881,,,301763.89999997616,301764.39999997616,2024-05-21T20:41:00.869Z,301792.7,Dh-x6F29Zl,incremental,anketa,6645cf40bc81b65c5faccf1d,participant,hcpibl38lwguulk9,,,,,Ove godine su se Viktor i Marta vjenčao.,Victor i Marta vjenčali su se ove godine.,nf,,,38,,
,Answer indication,canvas.Screen,2_10_4,,,,,,,skipped,,301765.1999999881,,,301763.89999997616,301765.39999997616,2024-05-21T20:41:00.870Z,301792.7,Dh-x6F29Zl,incremental,anketa,6645cf40bc81b65c5faccf1d,participant,hcpibl38lwguulk9,,,,,Ove godine su se Viktor i Marta vjenčao.,Victor i Marta vjenčali su se ove godine.,nf,,,38,,
,inter-stimulus,canvas.Screen,2_10_5,,,,,,,response,1405.2999999999884,301765.5,301776.3,301792.7,303198,303199.1999999881,2024-05-21T20:41:02.305Z,303209.3,Dh-x6F29Zl,incremental,anketa,6645cf40bc81b65c5faccf1d,participant,hcpibl38lwguulk9,,,mousedown,,Ove godine su se Viktor i Marta vjenčao.,Victor i Marta vjenčali su se ove godine.,nf,,,38,,
,Sequence,flow.Sequence,2_10,,,,,,,completion,11855.299999999988,291327.89999997616,291326.2,291342.7,303198,303199.39999997616,2024-05-21T20:41:02.305Z,303209.3,Dh-x6F29Zl,incremental,anketa,6645cf40bc81b65c5faccf1d,participant,hcpibl38lwguulk9,,,,,Ove godine su se Viktor i Marta vjenčao.,Victor i Marta vjenčali su se ove godine.,nf,,,38,,
,context,canvas.Screen,2_11_0_0,,,,,,,response,7065.399999988091,303199.8000000119,303192.9,303209.3,310274.6999999881,310275.6999999881,2024-05-21T20:41:09.381Z,310292.6,Dh-x6F29Zl,incremental,anketa,6645cf40bc81b65c5faccf1d,participant,hcpibl38lwguulk9,,,click,,Tko ono da je prodao svoj stan za toliki novac nevjerojatno je??,Ono da je Goran prodao svoj stan za toliki novac nevjerojatno je..,si,30,32,17,,
,Timer frame,html.Frame,2_11_0,,,,,,,,7066.59999997617,303199.60000002384,303192.9,303209.3,310275.89999997616,310276.10000002384,2024-05-21T20:41:09.382Z,310292.6,Dh-x6F29Zl,incremental,anketa,6645cf40bc81b65c5faccf1d,participant,hcpibl38lwguulk9,,,,,Tko ono da je prodao svoj stan za toliki novac nevjerojatno je??,Ono da je Goran prodao svoj stan za toliki novac nevjerojatno je..,si,30,32,17,,
,stimulus,canvas.Screen,2_11_1_0,,,,,,,response,8800.099999988102,310276.60000002384,310276.164,310292.6,319092.6999999881,319093.8000000119,2024-05-21T20:41:18.199Z,319126.1,Dh-x6F29Zl,incremental,anketa,6645cf40bc81b65c5faccf1d,participant,hcpibl38lwguulk9,,2,click @2,,Tko ono da je prodao svoj stan za toliki novac nevjerojatno je??,Ono da je Goran prodao svoj stan za toliki novac nevjerojatno je..,si,30,32,17,,
,Timer frame,html.Frame,2_11_1,,,,,,,,8801.299999976181,310276.3000000119,310276.164,310292.6,319093.89999997616,319094,2024-05-21T20:41:18.199Z,319126.1,Dh-x6F29Zl,incremental,anketa,6645cf40bc81b65c5faccf1d,participant,hcpibl38lwguulk9,,,,,Tko ono da je prodao svoj stan za toliki novac nevjerojatno je??,Ono da je Goran prodao svoj stan za toliki novac nevjerojatno je..,si,30,32,17,,
,Spremanje,canvas.Screen,2_11_2,,,,,,,skipped,,319094.10000002384,,,319093.89999997616,319094.1999999881,2024-05-21T20:41:18.200Z,319126.1,Dh-x6F29Zl,incremental,anketa,6645cf40bc81b65c5faccf1d,participant,hcpibl38lwguulk9,,,,,Tko ono da je prodao svoj stan za toliki novac nevjerojatno je??,Ono da je Goran prodao svoj stan za toliki novac nevjerojatno je..,si,30,32,17,,
,Question form,html.Form,2_11_3,,,,,,,skipped,,319094.1999999881,,,319093.89999997616,319094.3000000119,2024-05-21T20:41:18.200Z,319126.1,Dh-x6F29Zl,incremental,anketa,6645cf40bc81b65c5faccf1d,participant,hcpibl38lwguulk9,,,,,Tko ono da je prodao svoj stan za toliki novac nevjerojatno je??,Ono da je Goran prodao svoj stan za toliki novac nevjerojatno je..,si,30,32,17,,
,Answer indication,canvas.Screen,2_11_4,,,,,,,skipped,,319095.3000000119,,,319093.89999997616,319095.39999997616,2024-05-21T20:41:18.201Z,319126.1,Dh-x6F29Zl,incremental,anketa,6645cf40bc81b65c5faccf1d,participant,hcpibl38lwguulk9,,,,,Tko ono da je prodao svoj stan za toliki novac nevjerojatno je??,Ono da je Goran prodao svoj stan za toliki novac nevjerojatno je..,si,30,32,17,,
,inter-stimulus,canvas.Screen,2_11_5,,,,,,,response,2168.000000023865,319095.39999997616,319109.546,319126.1,321294.10000002384,321295.3000000119,2024-05-21T20:41:20.401Z,321309.3,Dh-x6F29Zl,incremental,anketa,6645cf40bc81b65c5faccf1d,participant,hcpibl38lwguulk9,,,mousedown,,Tko ono da je prodao svoj stan za toliki novac nevjerojatno je??,Ono da je Goran prodao svoj stan za toliki novac nevjerojatno je..,si,30,32,17,,
,Sequence,flow.Sequence,2_11,,,,,,,completion,18084.800000023853,303199.60000002384,303192.9,303209.3,321294.10000002384,321295.6999999881,2024-05-21T20:41:20.401Z,321309.3,Dh-x6F29Zl,incremental,anketa,6645cf40bc81b65c5faccf1d,participant,hcpibl38lwguulk9,,,,,Tko ono da je prodao svoj stan za toliki novac nevjerojatno je??,Ono da je Goran prodao svoj stan za toliki novac nevjerojatno je..,si,30,32,17,,
,context,canvas.Screen,2_12_0_0,,,,,,,response,3927.3999999880907,321296,321292.862,321309.3,325236.6999999881,325237.60000002384,2024-05-21T20:41:24.343Z,325242.7,Dh-x6F29Zl,incremental,anketa,6645cf40bc81b65c5faccf1d,participant,hcpibl38lwguulk9,,,click,,Tko je jučer susjedu ukrao kobasicu?,Jučer je riđa mačka susjedu ukrala kobasicu.,gf,,,50,KOBASICU; KOBASICA,Što je ukrala mačka?
,Timer frame,html.Frame,2_12_0,,,,,,,,3928.5000000119326,321295.8000000119,321292.862,321309.3,325237.8000000119,325238,2024-05-21T20:41:24.344Z,325242.7,Dh-x6F29Zl,incremental,anketa,6645cf40bc81b65c5faccf1d,participant,hcpibl38lwguulk9,,,,,Tko je jučer susjedu ukrao kobasicu?,Jučer je riđa mačka susjedu ukrala kobasicu.,gf,,,50,KOBASICU; KOBASICA,Što je ukrala mačka?
,stimulus,canvas.Screen,2_12_1_0,,,,,,,response,5335.999999988067,325238.39999997616,325226.166,325242.7,330578.6999999881,330579.6999999881,2024-05-21T20:41:29.685Z,330592.8,Dh-x6F29Zl,incremental,anketa,6645cf40bc81b65c5faccf1d,participant,hcpibl38lwguulk9,,7,click @7,,Tko je jučer susjedu ukrao kobasicu?,Jučer je riđa mačka susjedu ukrala kobasicu.,gf,,,50,KOBASICU; KOBASICA,Što je ukrala mačka?
,Timer frame,html.Frame,2_12_1,,,,,,,,5337.100000011909,325238.10000002384,325226.166,325242.7,330579.8000000119,330579.89999997616,2024-05-21T20:41:29.685Z,330592.8,Dh-x6F29Zl,incremental,anketa,6645cf40bc81b65c5faccf1d,participant,hcpibl38lwguulk9,,,,,Tko je jučer susjedu ukrao kobasicu?,Jučer je riđa mačka susjedu ukrala kobasicu.,gf,,,50,KOBASICU; KOBASICA,Što je ukrala mačka?
,Spremanje,canvas.Screen,2_12_2,,,,,,,response,1819.0999999761698,330580,330576.224,330592.8,332411.89999997616,332413,2024-05-21T20:41:31.519Z,332426.1,Dh-x6F29Zl,incremental,anketa,6645cf40bc81b65c5faccf1d,participant,hcpibl38lwguulk9,,,mousedown,,Tko je jučer susjedu ukrao kobasicu?,Jučer je riđa mačka susjedu ukrala kobasicu.,gf,,,50,KOBASICU; KOBASICA,Što je ukrala mačka?
,Question form,html.Form,2_12_3,,,,,,,form submission,9122.400000000023,332413.1999999881,332409.562,332426.1,341548.5,341548.89999997616,2024-05-21T20:41:40.654Z,341559.4,Dh-x6F29Zl,incremental,anketa,6645cf40bc81b65c5faccf1d,participant,hcpibl38lwguulk9,,,,kobasicu,Tko je jučer susjedu ukrao kobasicu?,Jučer je riđa mačka susjedu ukrala kobasicu.,gf,,,50,KOBASICU; KOBASICA,Što je ukrala mačka?
,Answer indication,canvas.Screen,2_12_4,,,,,,,response,1762.0999999999767,341549.89999997616,341543.054,341559.4,343321.5,343322.6999999881,2024-05-21T20:41:42.428Z,343326.3,Dh-x6F29Zl,incremental,anketa,6645cf40bc81b65c5faccf1d,participant,hcpibl38lwguulk9,,,mousedown,,Tko je jučer susjedu ukrao kobasicu?,Jučer je riđa mačka susjedu ukrala kobasicu.,gf,,,50,KOBASICU; KOBASICA,Što je ukrala mačka?
,inter-stimulus,canvas.Screen,2_12_5,,,,,,,response,2239.5000000119326,343322.89999997616,343326.298,343326.3,345565.8000000119,345567,2024-05-21T20:41:44.673Z,345576.1,Dh-x6F29Zl,incremental,anketa,6645cf40bc81b65c5faccf1d,participant,hcpibl38lwguulk9,,,mousedown,,Tko je jučer susjedu ukrao kobasicu?,Jučer je riđa mačka susjedu ukrala kobasicu.,gf,,,50,KOBASICU; KOBASICA,Što je ukrala mačka?
,Sequence,flow.Sequence,2_12,,,,,,,completion,24256.500000011933,321295.6999999881,321292.862,321309.3,345565.8000000119,345567.39999997616,2024-05-21T20:41:44.673Z,345576.1,Dh-x6F29Zl,incremental,anketa,6645cf40bc81b65c5faccf1d,participant,hcpibl38lwguulk9,,,,,Tko je jučer susjedu ukrao kobasicu?,Jučer je riđa mačka susjedu ukrala kobasicu.,gf,,,50,KOBASICU; KOBASICA,Što je ukrala mačka?
,context,canvas.Screen,2_13_0_0,,,,,,,response,2402.500000023865,345567.6999999881,345559.6,345576.1,347978.60000002384,347979.60000002384,2024-05-21T20:41:47.085Z,348009.6,Dh-x6F29Zl,incremental,anketa,6645cf40bc81b65c5faccf1d,participant,hcpibl38lwguulk9,,,click,,Vidimo plažu daleko od koje smo bili.,Vidimo plažu od koje smo bili daleko.,ai,,,24,,
,Timer frame,html.Frame,2_13_0,,,,,,,,2403.5999999881024,345567.5,345559.6,345576.1,347979.6999999881,347979.8000000119,2024-05-21T20:41:47.085Z,348009.6,Dh-x6F29Zl,incremental,anketa,6645cf40bc81b65c5faccf1d,participant,hcpibl38lwguulk9,,,,,Vidimo plažu daleko od koje smo bili.,Vidimo plažu od koje smo bili daleko.,ai,,,24,,
,stimulus,canvas.Screen,2_13_1_0,,,,,,,response,8735.099999988102,347980.10000002384,347992.932,348009.6,356744.6999999881,356745.60000002384,2024-05-21T20:41:55.851Z,356759.5,Dh-x6F29Zl,incremental,anketa,6645cf40bc81b65c5faccf1d,participant,hcpibl38lwguulk9,,6,click @6,,Vidimo plažu daleko od koje smo bili.,Vidimo plažu od koje smo bili daleko.,ai,,,24,,
,Timer frame,html.Frame,2_13_1,,,,,,,,8736.200000011944,347979.8000000119,347992.932,348009.6,356745.8000000119,356745.89999997616,2024-05-21T20:41:55.851Z,356759.5,Dh-x6F29Zl,incremental,anketa,6645cf40bc81b65c5faccf1d,participant,hcpibl38lwguulk9,,,,,Vidimo plažu daleko od koje smo bili.,Vidimo plažu od koje smo bili daleko.,ai,,,24,,
,Spremanje,canvas.Screen,2_13_2,,,,,,,skipped,,356746,,,356745.8000000119,356746.1999999881,2024-05-21T20:41:55.852Z,356759.5,Dh-x6F29Zl,incremental,anketa,6645cf40bc81b65c5faccf1d,participant,hcpibl38lwguulk9,,,,,Vidimo plažu daleko od koje smo bili.,Vidimo plažu od koje smo bili daleko.,ai,,,24,,
,Question form,html.Form,2_13_3,,,,,,,skipped,,356746.1999999881,,,356745.8000000119,356746.3000000119,2024-05-21T20:41:55.852Z,356759.5,Dh-x6F29Zl,incremental,anketa,6645cf40bc81b65c5faccf1d,participant,hcpibl38lwguulk9,,,,,Vidimo plažu daleko od koje smo bili.,Vidimo plažu od koje smo bili daleko.,ai,,,24,,
,Answer indication,canvas.Screen,2_13_4,,,,,,,skipped,,356747.3000000119,,,356745.8000000119,356747.39999997616,2024-05-21T20:41:55.853Z,356759.5,Dh-x6F29Zl,incremental,anketa,6645cf40bc81b65c5faccf1d,participant,hcpibl38lwguulk9,,,,,Vidimo plažu daleko od koje smo bili.,Vidimo plažu od koje smo bili daleko.,ai,,,24,,
,inter-stimulus,canvas.Screen,2_13_5,,,,,,,response,1280,356747.5,356743.264,356759.5,358039.5,358040.6999999881,2024-05-21T20:41:57.146Z,358043,Dh-x6F29Zl,incremental,anketa,6645cf40bc81b65c5faccf1d,participant,hcpibl38lwguulk9,,,mousedown,,Vidimo plažu daleko od koje smo bili.,Vidimo plažu od koje smo bili daleko.,ai,,,24,,
,Sequence,flow.Sequence,2_13,,,,,,,completion,12463.400000000023,345567.39999997616,345559.6,345576.1,358039.5,358041,2024-05-21T20:41:57.146Z,358043,Dh-x6F29Zl,incremental,anketa,6645cf40bc81b65c5faccf1d,participant,hcpibl38lwguulk9,,,,,Vidimo plažu daleko od koje smo bili.,Vidimo plažu od koje smo bili daleko.,ai,,,24,,
,context,canvas.Screen,2_14_0_0,,,,,,,response,2447.699999988079,358041.1999999881,358026.358,358043,360490.6999999881,360491.5,2024-05-21T20:41:59.597Z,360493.332,Dh-x6F29Zl,incremental,anketa,6645cf40bc81b65c5faccf1d,participant,hcpibl38lwguulk9,,,click,,Što ćemo uništit i saditi vrtove?,Uništit ćemo carstva i saditi vrtove.,csi,0,0,5,,
,Timer frame,html.Frame,2_14_0,,,,,,,,2448.899999976158,358041,358026.358,358043,360491.89999997616,360491.89999997616,2024-05-21T20:41:59.597Z,360493.332,Dh-x6F29Zl,incremental,anketa,6645cf40bc81b65c5faccf1d,participant,hcpibl38lwguulk9,,,,,Što ćemo uništit i saditi vrtove?,Uništit ćemo carstva i saditi vrtove.,csi,0,0,5,,
,stimulus,canvas.Screen,2_14_1_0,,,,,,,response,7239.268000023847,360492.3000000119,360493.332,360493.332,367732.60000002384,367733.6999999881,2024-05-21T20:42:06.839Z,367742.9,Dh-x6F29Zl,incremental,anketa,6645cf40bc81b65c5faccf1d,participant,hcpibl38lwguulk9,,5,click @5,,Što ćemo uništit i saditi vrtove?,Uništit ćemo carstva i saditi vrtove.,csi,0,0,5,,
,Timer frame,html.Frame,2_14_1,,,,,,,,7240.567999976163,360492,360493.332,360493.332,367733.89999997616,367733.89999997616,2024-05-21T20:42:06.839Z,367742.9,Dh-x6F29Zl,incremental,anketa,6645cf40bc81b65c5faccf1d,participant,hcpibl38lwguulk9,,,,,Što ćemo uništit i saditi vrtove?,Uništit ćemo carstva i saditi vrtove.,csi,0,0,5,,
,Spremanje,canvas.Screen,2_14_2,,,,,,,skipped,,367734.10000002384,,,367733.89999997616,367734.10000002384,2024-05-21T20:42:06.840Z,367742.9,Dh-x6F29Zl,incremental,anketa,6645cf40bc81b65c5faccf1d,participant,hcpibl38lwguulk9,,,,,Što ćemo uništit i saditi vrtove?,Uništit ćemo carstva i saditi vrtove.,csi,0,0,5,,
,Question form,html.Form,2_14_3,,,,,,,skipped,,367734.1999999881,,,367733.89999997616,367734.39999997616,2024-05-21T20:42:06.840Z,367742.9,Dh-x6F29Zl,incremental,anketa,6645cf40bc81b65c5faccf1d,participant,hcpibl38lwguulk9,,,,,Što ćemo uništit i saditi vrtove?,Uništit ćemo carstva i saditi vrtove.,csi,0,0,5,,
,Answer indication,canvas.Screen,2_14_4,,,,,,,skipped,,367735.1999999881,,,367733.89999997616,367735.39999997616,2024-05-21T20:42:06.841Z,367742.9,Dh-x6F29Zl,incremental,anketa,6645cf40bc81b65c5faccf1d,participant,hcpibl38lwguulk9,,,,,Što ćemo uništit i saditi vrtove?,Uništit ćemo carstva i saditi vrtove.,csi,0,0,5,,
,inter-stimulus,canvas.Screen,2_14_5,,,,,,,response,1741.4000000118976,367735.5,367726.392,367742.9,369484.3000000119,369485.5,2024-05-21T20:42:08.591Z,369492.9,Dh-x6F29Zl,incremental,anketa,6645cf40bc81b65c5faccf1d,participant,hcpibl38lwguulk9,,,mousedown,,Što ćemo uništit i saditi vrtove?,Uništit ćemo carstva i saditi vrtove.,csi,0,0,5,,
,Sequence,flow.Sequence,2_14,,,,,,,completion,11441.300000011921,358041,358026.358,358043,369484.3000000119,369485.8000000119,2024-05-21T20:42:08.591Z,369492.9,Dh-x6F29Zl,incremental,anketa,6645cf40bc81b65c5faccf1d,participant,hcpibl38lwguulk9,,,,,Što ćemo uništit i saditi vrtove?,Uništit ćemo carstva i saditi vrtove.,csi,0,0,5,,
,context,canvas.Screen,2_15_0_0,,,,,,,response,1193.7000000238186,369486.10000002384,369476.372,369492.9,370686.60000002384,370687.5,2024-05-21T20:42:09.793Z,370692.8,Dh-x6F29Zl,incremental,anketa,6645cf40bc81b65c5faccf1d,participant,hcpibl38lwguulk9,,,click,,Kakve izgrađene u viktorijansko doba te zgrade su izgrađene??,Te su zgrade izgrađene u viktorijansko doba.,nf,36,,43,,
,Timer frame,html.Frame,2_15_0,,,,,,,,1194.7000000238186,369485.89999997616,369476.372,369492.9,370687.60000002384,370687.6999999881,2024-05-21T20:42:09.793Z,370692.8,Dh-x6F29Zl,incremental,anketa,6645cf40bc81b65c5faccf1d,participant,hcpibl38lwguulk9,,,,,Kakve izgrađene u viktorijansko doba te zgrade su izgrađene??,Te su zgrade izgrađene u viktorijansko doba.,nf,36,,43,,
,stimulus,canvas.Screen,2_15_1_0,,,,,,,response,6579.899999988091,370688.10000002384,370676.364,370692.8,377272.6999999881,377273.6999999881,2024-05-21T20:42:16.379Z,377293.3,Dh-x6F29Zl,incremental,anketa,6645cf40bc81b65c5faccf1d,participant,hcpibl38lwguulk9,,1,click @1,,Kakve izgrađene u viktorijansko doba te zgrade su izgrađene??,Te su zgrade izgrađene u viktorijansko doba.,nf,36,,43,,
,Timer frame,html.Frame,2_15_1,,,,,,,,6581.000000011933,370687.8000000119,370676.364,370692.8,377273.8000000119,377273.89999997616,2024-05-21T20:42:16.379Z,377293.3,Dh-x6F29Zl,incremental,anketa,6645cf40bc81b65c5faccf1d,participant,hcpibl38lwguulk9,,,,,Kakve izgrađene u viktorijansko doba te zgrade su izgrađene??,Te su zgrade izgrađene u viktorijansko doba.,nf,36,,43,,
,Spremanje,canvas.Screen,2_15_2,,,,,,,skipped,,377274,,,377273.8000000119,377274.10000002384,2024-05-21T20:42:16.379Z,377293.3,Dh-x6F29Zl,incremental,anketa,6645cf40bc81b65c5faccf1d,participant,hcpibl38lwguulk9,,,,,Kakve izgrađene u viktorijansko doba te zgrade su izgrađene??,Te su zgrade izgrađene u viktorijansko doba.,nf,36,,43,,
,Question form,html.Form,2_15_3,,,,,,,skipped,,377274.1999999881,,,377273.8000000119,377274.3000000119,2024-05-21T20:42:16.380Z,377293.3,Dh-x6F29Zl,incremental,anketa,6645cf40bc81b65c5faccf1d,participant,hcpibl38lwguulk9,,,,,Kakve izgrađene u viktorijansko doba te zgrade su izgrađene??,Te su zgrade izgrađene u viktorijansko doba.,nf,36,,43,,
,Answer indication,canvas.Screen,2_15_4,,,,,,,skipped,,377275,,,377273.8000000119,377275.1999999881,2024-05-21T20:42:16.381Z,377293.3,Dh-x6F29Zl,incremental,anketa,6645cf40bc81b65c5faccf1d,participant,hcpibl38lwguulk9,,,,,Kakve izgrađene u viktorijansko doba te zgrade su izgrađene??,Te su zgrade izgrađene u viktorijansko doba.,nf,36,,43,,
,inter-stimulus,canvas.Screen,2_15_5,,,,,,,response,1206.8999999880907,377275.3000000119,377259.786,377293.3,378500.1999999881,378501.5,2024-05-21T20:42:17.607Z,378526.4,Dh-x6F29Zl,incremental,anketa,6645cf40bc81b65c5faccf1d,participant,hcpibl38lwguulk9,,,mousedown,,Kakve izgrađene u viktorijansko doba te zgrade su izgrađene??,Te su zgrade izgrađene u viktorijansko doba.,nf,36,,43,,
,Sequence,flow.Sequence,2_15,,,,,,,completion,9007.299999988056,369485.89999997616,369476.372,369492.9,378500.1999999881,378501.6999999881,2024-05-21T20:42:17.607Z,378526.4,Dh-x6F29Zl,incremental,anketa,6645cf40bc81b65c5faccf1d,participant,hcpibl38lwguulk9,,,,,Kakve izgrađene u viktorijansko doba te zgrade su izgrađene??,Te su zgrade izgrađene u viktorijansko doba.,nf,36,,43,,
,context,canvas.Screen,2_16_0_0,,,,,,,response,1184.2999999880558,378502,378509.8,378526.4,379710.6999999881,379711.39999997616,2024-05-21T20:42:18.817Z,379743,Dh-x6F29Zl,incremental,anketa,6645cf40bc81b65c5faccf1d,participant,hcpibl38lwguulk9,,,click,,Što želiš da bi pronaći nije bilo teško?,Pronaći apoteku nije bilo teško.,si,,,14,,
,Timer frame,html.Frame,2_16_0,,,,,,,,1185.2999999880558,378501.89999997616,378509.8,378526.4,379711.6999999881,379711.8000000119,2024-05-21T20:42:18.817Z,379743,Dh-x6F29Zl,incremental,anketa,6645cf40bc81b65c5faccf1d,participant,hcpibl38lwguulk9,,,,,Što želiš da bi pronaći nije bilo teško?,Pronaći apoteku nije bilo teško.,si,,,14,,
,stimulus,canvas.Screen,2_16_1_0,,,,,,,response,3737.699999988079,379712.10000002384,379726.4,379743,383480.6999999881,383481.60000002384,2024-05-21T20:42:22.587Z,383493,Dh-x6F29Zl,incremental,anketa,6645cf40bc81b65c5faccf1d,participant,hcpibl38lwguulk9,,1,click @1,,Što želiš da bi pronaći nije bilo teško?,Pronaći apoteku nije bilo teško.,si,,,14,,
,Timer frame,html.Frame,2_16_1,,,,,,,,3738.600000023842,379711.8000000119,379726.4,379743,383481.60000002384,383481.8000000119,2024-05-21T20:42:22.587Z,383493,Dh-x6F29Zl,incremental,anketa,6645cf40bc81b65c5faccf1d,participant,hcpibl38lwguulk9,,,,,Što želiš da bi pronaći nije bilo teško?,Pronaći apoteku nije bilo teško.,si,,,14,,
,Spremanje,canvas.Screen,2_16_2,,,,,,,skipped,,383481.89999997616,,,383481.60000002384,383482,2024-05-21T20:42:22.587Z,383493,Dh-x6F29Zl,incremental,anketa,6645cf40bc81b65c5faccf1d,participant,hcpibl38lwguulk9,,,,,Što želiš da bi pronaći nije bilo teško?,Pronaći apoteku nije bilo teško.,si,,,14,,
,Question form,html.Form,2_16_3,,,,,,,skipped,,383482,,,383481.60000002384,383482.1999999881,2024-05-21T20:42:22.588Z,383493,Dh-x6F29Zl,incremental,anketa,6645cf40bc81b65c5faccf1d,participant,hcpibl38lwguulk9,,,,,Što želiš da bi pronaći nije bilo teško?,Pronaći apoteku nije bilo teško.,si,,,14,,
,Answer indication,canvas.Screen,2_16_4,,,,,,,skipped,,383483.10000002384,,,383481.60000002384,383483.1999999881,2024-05-21T20:42:22.589Z,383493,Dh-x6F29Zl,incremental,anketa,6645cf40bc81b65c5faccf1d,participant,hcpibl38lwguulk9,,,,,Što želiš da bi pronaći nije bilo teško?,Pronaći apoteku nije bilo teško.,si,,,14,,
,inter-stimulus,canvas.Screen,2_16_5,,,,,,,response,1390.6000000238419,383483.3000000119,383476.464,383493,384883.60000002384,384884.89999997616,2024-05-21T20:42:23.990Z,384892.9,Dh-x6F29Zl,incremental,anketa,6645cf40bc81b65c5faccf1d,participant,hcpibl38lwguulk9,,,mousedown,,Što želiš da bi pronaći nije bilo teško?,Pronaći apoteku nije bilo teško.,si,,,14,,
,Sequence,flow.Sequence,2_16,,,,,,,completion,6357.200000023819,378501.8000000119,378509.8,378526.4,384883.60000002384,384885.1999999881,2024-05-21T20:42:23.991Z,384892.9,Dh-x6F29Zl,incremental,anketa,6645cf40bc81b65c5faccf1d,participant,hcpibl38lwguulk9,,,,,Što želiš da bi pronaći nije bilo teško?,Pronaći apoteku nije bilo teško.,si,,,14,,
,context,canvas.Screen,2_17_0_0,,,,,,,response,1629.7999999880558,384885.5,384876.492,384892.9,386522.6999999881,386523.60000002384,2024-05-21T20:42:25.629Z,386526.4,Dh-x6F29Zl,incremental,anketa,6645cf40bc81b65c5faccf1d,participant,hcpibl38lwguulk9,,,click,,Čega je riješio taj misterij?,Riješio je taj misterij nestanka psa.,di,,,32,,
,Timer frame,html.Frame,2_17_0,,,,,,,,1630.9000000118976,384885.3000000119,384876.492,384892.9,386523.8000000119,386523.89999997616,2024-05-21T20:42:25.629Z,386526.4,Dh-x6F29Zl,incremental,anketa,6645cf40bc81b65c5faccf1d,participant,hcpibl38lwguulk9,,,,,Čega je riješio taj misterij?,Riješio je taj misterij nestanka psa.,di,,,32,,
,stimulus,canvas.Screen,2_17_1_0,,,,,,,response,8378.599999999977,386524.1999999881,386509.83,386526.4,394905,394906.10000002384,2024-05-21T20:42:34.011Z,394909.964,Dh-x6F29Zl,incremental,anketa,6645cf40bc81b65c5faccf1d,participant,hcpibl38lwguulk9,,3,click @3,,Čega je riješio taj misterij?,Riješio je taj misterij nestanka psa.,di,,,32,,
,Timer frame,html.Frame,2_17_1,,,,,,,,8379.799999988056,386524,386509.83,386526.4,394906.1999999881,394906.3000000119,2024-05-21T20:42:34.012Z,394909.964,Dh-x6F29Zl,incremental,anketa,6645cf40bc81b65c5faccf1d,participant,hcpibl38lwguulk9,,,,,Čega je riješio taj misterij?,Riješio je taj misterij nestanka psa.,di,,,32,,
,Spremanje,canvas.Screen,2_17_2,,,,,,,skipped,,394906.39999997616,,,394906.1999999881,394906.5,2024-05-21T20:42:34.012Z,394909.964,Dh-x6F29Zl,incremental,anketa,6645cf40bc81b65c5faccf1d,participant,hcpibl38lwguulk9,,,,,Čega je riješio taj misterij?,Riješio je taj misterij nestanka psa.,di,,,32,,
,Question form,html.Form,2_17_3,,,,,,,skipped,,394906.60000002384,,,394906.1999999881,394906.60000002384,2024-05-21T20:42:34.012Z,394909.964,Dh-x6F29Zl,incremental,anketa,6645cf40bc81b65c5faccf1d,participant,hcpibl38lwguulk9,,,,,Čega je riješio taj misterij?,Riješio je taj misterij nestanka psa.,di,,,32,,
,Answer indication,canvas.Screen,2_17_4,,,,,,,skipped,,394907.5,,,394906.1999999881,394907.6999999881,2024-05-21T20:42:34.013Z,394909.964,Dh-x6F29Zl,incremental,anketa,6645cf40bc81b65c5faccf1d,participant,hcpibl38lwguulk9,,,,,Čega je riješio taj misterij?,Riješio je taj misterij nestanka psa.,di,,,32,,
,inter-stimulus,canvas.Screen,2_17_5,,,,,,,response,826.43599997618,394907.6999999881,394909.964,394909.964,395736.39999997616,395737.5,2024-05-21T20:42:34.843Z,395742.9,Dh-x6F29Zl,incremental,anketa,6645cf40bc81b65c5faccf1d,participant,hcpibl38lwguulk9,,,mousedown,,Čega je riješio taj misterij?,Riješio je taj misterij nestanka psa.,di,,,32,,
,Sequence,flow.Sequence,2_17,,,,,,,completion,10843.499999976135,384885.3000000119,384876.492,384892.9,395736.39999997616,395737.89999997616,2024-05-21T20:42:34.843Z,395742.9,Dh-x6F29Zl,incremental,anketa,6645cf40bc81b65c5faccf1d,participant,hcpibl38lwguulk9,,,,,Čega je riješio taj misterij?,Riješio je taj misterij nestanka psa.,di,,,32,,
,context,canvas.Screen,2_18_0_0,,,,,,,response,1305.9000000118976,395738.1999999881,395726.562,395742.9,397048.8000000119,397049.6999999881,2024-05-21T20:42:36.155Z,397076.4,Dh-x6F29Zl,incremental,anketa,6645cf40bc81b65c5faccf1d,participant,hcpibl38lwguulk9,,,click,,Prije čega dobro je da smo stigli?,Dobro je da smo stigli prije polaska vlaka.,si,,,15,,
,Timer frame,html.Frame,2_18_0,,,,,,,,1306.9000000118976,395738.10000002384,395726.562,395742.9,397049.8000000119,397049.89999997616,2024-05-21T20:42:36.155Z,397076.4,Dh-x6F29Zl,incremental,anketa,6645cf40bc81b65c5faccf1d,participant,hcpibl38lwguulk9,,,,,Prije čega dobro je da smo stigli?,Dobro je da smo stigli prije polaska vlaka.,si,,,15,,
,stimulus,canvas.Screen,2_18_1_0,,,,,,,response,9938.700000023819,397050.1999999881,397059.854,397076.4,407015.10000002384,407016.39999997616,2024-05-21T20:42:46.122Z,407043.2,Dh-x6F29Zl,incremental,anketa,6645cf40bc81b65c5faccf1d,participant,hcpibl38lwguulk9,,3,click @3,,Prije čega dobro je da smo stigli?,Dobro je da smo stigli prije polaska vlaka.,si,,,15,,
,Timer frame,html.Frame,2_18_1,,,,,,,,9940.200000023819,397050,397059.854,397076.4,407016.60000002384,407016.8000000119,2024-05-21T20:42:46.122Z,407043.2,Dh-x6F29Zl,incremental,anketa,6645cf40bc81b65c5faccf1d,participant,hcpibl38lwguulk9,,,,,Prije čega dobro je da smo stigli?,Dobro je da smo stigli prije polaska vlaka.,si,,,15,,
,Spremanje,canvas.Screen,2_18_2,,,,,,,skipped,,407016.89999997616,,,407016.60000002384,407017,2024-05-21T20:42:46.122Z,407043.2,Dh-x6F29Zl,incremental,anketa,6645cf40bc81b65c5faccf1d,participant,hcpibl38lwguulk9,,,,,Prije čega dobro je da smo stigli?,Dobro je da smo stigli prije polaska vlaka.,si,,,15,,
,Question form,html.Form,2_18_3,,,,,,,skipped,,407017.10000002384,,,407016.60000002384,407017.1999999881,2024-05-21T20:42:46.123Z,407043.2,Dh-x6F29Zl,incremental,anketa,6645cf40bc81b65c5faccf1d,participant,hcpibl38lwguulk9,,,,,Prije čega dobro je da smo stigli?,Dobro je da smo stigli prije polaska vlaka.,si,,,15,,
,Answer indication,canvas.Screen,2_18_4,,,,,,,skipped,,407018.1999999881,,,407016.60000002384,407018.39999997616,2024-05-21T20:42:46.124Z,407043.2,Dh-x6F29Zl,incremental,anketa,6645cf40bc81b65c5faccf1d,participant,hcpibl38lwguulk9,,,,,Prije čega dobro je da smo stigli?,Dobro je da smo stigli prije polaska vlaka.,si,,,15,,
,inter-stimulus,canvas.Screen,2_18_5,,,,,,,response,1540.4000000238302,407018.5,407026.532,407043.2,408583.60000002384,408584.8000000119,2024-05-21T20:42:47.690Z,408593,Dh-x6F29Zl,incremental,anketa,6645cf40bc81b65c5faccf1d,participant,hcpibl38lwguulk9,,,mousedown,,Prije čega dobro je da smo stigli?,Dobro je da smo stigli prije polaska vlaka.,si,,,15,,
,Sequence,flow.Sequence,2_18,,,,,,,completion,12840.700000023819,395738,395726.562,395742.9,408583.60000002384,408585,2024-05-21T20:42:47.690Z,408593,Dh-x6F29Zl,incremental,anketa,6645cf40bc81b65c5faccf1d,participant,hcpibl38lwguulk9,,,,,Prije čega dobro je da smo stigli?,Dobro je da smo stigli prije polaska vlaka.,si,,,15,,
,context,canvas.Screen,2_19_0_0,,,,,,,response,2373.699999988079,408585.3000000119,408576.692,408593,410966.6999999881,410967.60000002384,2024-05-21T20:42:50.073Z,410976.6,Dh-x6F29Zl,incremental,anketa,6645cf40bc81b65c5faccf1d,participant,hcpibl38lwguulk9,,,click,,"To su oni siromasi, koje je htio nahraniti i moliti se bogu..",Hoće nahraniti siromahe i moliti se bogu.,csi,42,0,6,,
,Timer frame,html.Frame,2_19_0,,,,,,,,2374.699999988079,408585.10000002384,408576.692,408593,410967.6999999881,410967.8000000119,2024-05-21T20:42:50.073Z,410976.6,Dh-x6F29Zl,incremental,anketa,6645cf40bc81b65c5faccf1d,participant,hcpibl38lwguulk9,,,,,"To su oni siromasi, koje je htio nahraniti i moliti se bogu..",Hoće nahraniti siromahe i moliti se bogu.,csi,42,0,6,,
,stimulus,canvas.Screen,2_19_1_0,,,,,,,response,10234.799999976181,410968.10000002384,410976.496,410976.6,421211.39999997616,421212.5,2024-05-21T20:43:00.318Z,421243.3,Dh-x6F29Zl,incremental,anketa,6645cf40bc81b65c5faccf1d,participant,hcpibl38lwguulk9,,5,click @5,,"To su oni siromasi, koje je htio nahraniti i moliti se bogu..",Hoće nahraniti siromahe i moliti se bogu.,csi,42,0,6,,
,Timer frame,html.Frame,2_19_1,,,,,,,,10236.099999988102,410967.89999997616,410976.496,410976.6,421212.6999999881,421212.8000000119,2024-05-21T20:43:00.318Z,421243.3,Dh-x6F29Zl,incremental,anketa,6645cf40bc81b65c5faccf1d,participant,hcpibl38lwguulk9,,,,,"To su oni siromasi, koje je htio nahraniti i moliti se bogu..",Hoće nahraniti siromahe i moliti se bogu.,csi,42,0,6,,
,Spremanje,canvas.Screen,2_19_2,,,,,,,skipped,,421212.89999997616,,,421212.6999999881,421212.89999997616,2024-05-21T20:43:00.318Z,421243.3,Dh-x6F29Zl,incremental,anketa,6645cf40bc81b65c5faccf1d,participant,hcpibl38lwguulk9,,,,,"To su oni siromasi, koje je htio nahraniti i moliti se bogu..",Hoće nahraniti siromahe i moliti se bogu.,csi,42,0,6,,
,Question form,html.Form,2_19_3,,,,,,,skipped,,421213,,,421212.6999999881,421213.1999999881,2024-05-21T20:43:00.319Z,421243.3,Dh-x6F29Zl,incremental,anketa,6645cf40bc81b65c5faccf1d,participant,hcpibl38lwguulk9,,,,,"To su oni siromasi, koje je htio nahraniti i moliti se bogu..",Hoće nahraniti siromahe i moliti se bogu.,csi,42,0,6,,
,Answer indication,canvas.Screen,2_19_4,,,,,,,skipped,,421214.10000002384,,,421212.6999999881,421214.10000002384,2024-05-21T20:43:00.320Z,421243.3,Dh-x6F29Zl,incremental,anketa,6645cf40bc81b65c5faccf1d,participant,hcpibl38lwguulk9,,,,,"To su oni siromasi, koje je htio nahraniti i moliti se bogu..",Hoće nahraniti siromahe i moliti se bogu.,csi,42,0,6,,
,inter-stimulus,canvas.Screen,2_19_5,,,,,,,response,2354.7000000000116,421214.1999999881,421226.652,421243.3,423598,423599.10000002384,2024-05-21T20:43:02.705Z,423609.9,Dh-x6F29Zl,incremental,anketa,6645cf40bc81b65c5faccf1d,participant,hcpibl38lwguulk9,,,mousedown,,"To su oni siromasi, koje je htio nahraniti i moliti se bogu..",Hoće nahraniti siromahe i moliti se bogu.,csi,42,0,6,,
,Sequence,flow.Sequence,2_19,,,,,,,completion,15005,408585.10000002384,408576.692,408593,423598,423599.39999997616,2024-05-21T20:43:02.705Z,423609.9,Dh-x6F29Zl,incremental,anketa,6645cf40bc81b65c5faccf1d,participant,hcpibl38lwguulk9,,,,,"To su oni siromasi, koje je htio nahraniti i moliti se bogu..",Hoće nahraniti siromahe i moliti se bogu.,csi,42,0,6,,
,context,canvas.Screen,2_20_0_0,,,,,,,response,3316.799999988056,423599.6999999881,423593.4,423609.9,426926.6999999881,426927.5,2024-05-21T20:43:06.033Z,426943.3,Dh-x6F29Zl,incremental,anketa,6645cf40bc81b65c5faccf1d,participant,hcpibl38lwguulk9,,,click,,Od čega je djed otišao u sanatorij odmarati?,Djed je otišao u sanatorij odmarati od gužve i buke..,ai,,26,30,,
,Timer frame,html.Frame,2_20_0,,,,,,,,3317.799999988056,423599.5,423593.4,423609.9,426927.6999999881,426927.89999997616,2024-05-21T20:43:06.033Z,426943.3,Dh-x6F29Zl,incremental,anketa,6645cf40bc81b65c5faccf1d,participant,hcpibl38lwguulk9,,,,,Od čega je djed otišao u sanatorij odmarati?,Djed je otišao u sanatorij odmarati od gužve i buke..,ai,,26,30,,
,stimulus,canvas.Screen,2_20_1_0,,,,,,,response,7943.500000011933,426928.1999999881,426926.728,426943.3,434886.8000000119,434887.8000000119,2024-05-21T20:43:13.993Z,434910,Dh-x6F29Zl,incremental,anketa,6645cf40bc81b65c5faccf1d,participant,hcpibl38lwguulk9,,5,click @5,,Od čega je djed otišao u sanatorij odmarati?,Djed je otišao u sanatorij odmarati od gužve i buke..,ai,,26,30,,
,Timer frame,html.Frame,2_20_1,,,,,,,,7944.700000000012,426927.89999997616,426926.728,426943.3,434888,434888.1999999881,2024-05-21T20:43:13.994Z,434910,Dh-x6F29Zl,incremental,anketa,6645cf40bc81b65c5faccf1d,participant,hcpibl38lwguulk9,,,,,Od čega je djed otišao u sanatorij odmarati?,Djed je otišao u sanatorij odmarati od gužve i buke..,ai,,26,30,,
,Spremanje,canvas.Screen,2_20_2,,,,,,,skipped,,434888.1999999881,,,434888,434888.39999997616,2024-05-21T20:43:13.994Z,434910,Dh-x6F29Zl,incremental,anketa,6645cf40bc81b65c5faccf1d,participant,hcpibl38lwguulk9,,,,,Od čega je djed otišao u sanatorij odmarati?,Djed je otišao u sanatorij odmarati od gužve i buke..,ai,,26,30,,
,Question form,html.Form,2_20_3,,,,,,,skipped,,434888.39999997616,,,434888,434888.5,2024-05-21T20:43:13.994Z,434910,Dh-x6F29Zl,incremental,anketa,6645cf40bc81b65c5faccf1d,participant,hcpibl38lwguulk9,,,,,Od čega je djed otišao u sanatorij odmarati?,Djed je otišao u sanatorij odmarati od gužve i buke..,ai,,26,30,,
,Answer indication,canvas.Screen,2_20_4,,,,,,,skipped,,434889.1999999881,,,434888,434889.39999997616,2024-05-21T20:43:13.995Z,434910,Dh-x6F29Zl,incremental,anketa,6645cf40bc81b65c5faccf1d,participant,hcpibl38lwguulk9,,,,,Od čega je djed otišao u sanatorij odmarati?,Djed je otišao u sanatorij odmarati od gužve i buke..,ai,,26,30,,
,inter-stimulus,canvas.Screen,2_20_5,,,,,,,response,1903.6000000238419,434889.39999997616,434893.2,434910,436813.60000002384,436814.6999999881,2024-05-21T20:43:15.920Z,436826.792,Dh-x6F29Zl,incremental,anketa,6645cf40bc81b65c5faccf1d,participant,hcpibl38lwguulk9,,,mousedown,,Od čega je djed otišao u sanatorij odmarati?,Djed je otišao u sanatorij odmarati od gužve i buke..,ai,,26,30,,
,Sequence,flow.Sequence,2_20,,,,,,,completion,13203.700000023819,423599.5,423593.4,423609.9,436813.60000002384,436815.10000002384,2024-05-21T20:43:15.920Z,436826.792,Dh-x6F29Zl,incremental,anketa,6645cf40bc81b65c5faccf1d,participant,hcpibl38lwguulk9,,,,,Od čega je djed otišao u sanatorij odmarati?,Djed je otišao u sanatorij odmarati od gužve i buke..,ai,,26,30,,
,context,canvas.Screen,2_21_0_0,,,,,,,response,2059.9079999880632,436815.3000000119,436826.792,436826.792,438886.6999999881,438887.8000000119,2024-05-21T20:43:17.993Z,438893.2,Dh-x6F29Zl,incremental,anketa,6645cf40bc81b65c5faccf1d,participant,hcpibl38lwguulk9,,,click,,Kolike su trenutno plaće u hrvatskom sportu?,Kolike plaće su trenutno u hrvatskom sportu?,lbc,,,35,,
,Timer frame,html.Frame,2_21_0,,,,,,,,2061.207999999984,436815.10000002384,436826.792,436826.792,438888,438888.10000002384,2024-05-21T20:43:17.993Z,438893.2,Dh-x6F29Zl,incremental,anketa,6645cf40bc81b65c5faccf1d,participant,hcpibl38lwguulk9,,,,,Kolike su trenutno plaće u hrvatskom sportu?,Kolike plaće su trenutno u hrvatskom sportu?,lbc,,,35,,
,stimulus,canvas.Screen,2_21_1_0,,,,,,,response,7961.499999988067,438888.5,438876.722,438893.2,446854.6999999881,446855.8000000119,2024-05-21T20:43:25.961Z,446876.6,Dh-x6F29Zl,incremental,anketa,6645cf40bc81b65c5faccf1d,participant,hcpibl38lwguulk9,,7,click @7,,Kolike su trenutno plaće u hrvatskom sportu?,Kolike plaće su trenutno u hrvatskom sportu?,lbc,,,35,,
,Timer frame,html.Frame,2_21_1,,,,,,,,7962.6999999761465,438888.1999999881,438876.722,438893.2,446855.89999997616,446856,2024-05-21T20:43:25.961Z,446876.6,Dh-x6F29Zl,incremental,anketa,6645cf40bc81b65c5faccf1d,participant,hcpibl38lwguulk9,,,,,Kolike su trenutno plaće u hrvatskom sportu?,Kolike plaće su trenutno u hrvatskom sportu?,lbc,,,35,,
,Spremanje,canvas.Screen,2_21_2,,,,,,,skipped,,446856.10000002384,,,446855.89999997616,446856.1999999881,2024-05-21T20:43:25.962Z,446876.6,Dh-x6F29Zl,incremental,anketa,6645cf40bc81b65c5faccf1d,participant,hcpibl38lwguulk9,,,,,Kolike su trenutno plaće u hrvatskom sportu?,Kolike plaće su trenutno u hrvatskom sportu?,lbc,,,35,,
,Question form,html.Form,2_21_3,,,,,,,skipped,,446856.3000000119,,,446855.89999997616,446856.39999997616,2024-05-21T20:43:25.962Z,446876.6,Dh-x6F29Zl,incremental,anketa,6645cf40bc81b65c5faccf1d,participant,hcpibl38lwguulk9,,,,,Kolike su trenutno plaće u hrvatskom sportu?,Kolike plaće su trenutno u hrvatskom sportu?,lbc,,,35,,
,Answer indication,canvas.Screen,2_21_4,,,,,,,skipped,,446857.1999999881,,,446855.89999997616,446857.3000000119,2024-05-21T20:43:25.963Z,446876.6,Dh-x6F29Zl,incremental,anketa,6645cf40bc81b65c5faccf1d,participant,hcpibl38lwguulk9,,,,,Kolike su trenutno plaće u hrvatskom sportu?,Kolike plaće su trenutno u hrvatskom sportu?,lbc,,,35,,
,inter-stimulus,canvas.Screen,2_21_5,,,,,,,response,1800.7999999761814,446857.39999997616,446860,446876.6,448677.39999997616,448678.60000002384,2024-05-21T20:43:27.784Z,448693.4,Dh-x6F29Zl,incremental,anketa,6645cf40bc81b65c5faccf1d,participant,hcpibl38lwguulk9,,,mousedown,,Kolike su trenutno plaće u hrvatskom sportu?,Kolike plaće su trenutno u hrvatskom sportu?,lbc,,,35,,
,Sequence,flow.Sequence,2_21,,,,,,,completion,11850.607999976142,436815.10000002384,436826.792,436826.792,448677.39999997616,448678.8000000119,2024-05-21T20:43:27.784Z,448693.4,Dh-x6F29Zl,incremental,anketa,6645cf40bc81b65c5faccf1d,participant,hcpibl38lwguulk9,,,,,Kolike su trenutno plaće u hrvatskom sportu?,Kolike plaće su trenutno u hrvatskom sportu?,lbc,,,35,,
,context,canvas.Screen,2_22_0_0,,,,,,,response,2835.299999988056,448679.1999999881,448676.788,448693.4,451528.6999999881,451529.5,2024-05-21T20:43:30.635Z,451560.1,Dh-x6F29Zl,incremental,anketa,6645cf40bc81b65c5faccf1d,participant,hcpibl38lwguulk9,,,click,,Kakva je kraj mene biciklom prošla djevojka?,Kraj mene je biciklom prošla vrlo lijepa djevojka.,ai,,,27,,
,Timer frame,html.Frame,2_22_0,,,,,,,,2836.2000000238186,448678.89999997616,448676.788,448693.4,451529.60000002384,451529.6999999881,2024-05-21T20:43:30.635Z,451560.1,Dh-x6F29Zl,incremental,anketa,6645cf40bc81b65c5faccf1d,participant,hcpibl38lwguulk9,,,,,Kakva je kraj mene biciklom prošla djevojka?,Kraj mene je biciklom prošla vrlo lijepa djevojka.,ai,,,27,,
,stimulus,canvas.Screen,2_22_1_0,,,,,,,response,5760.500000023865,451530,451543.4,451560.1,457320.60000002384,457321.6999999881,2024-05-21T20:43:36.427Z,457326.8,Dh-x6F29Zl,incremental,anketa,6645cf40bc81b65c5faccf1d,participant,hcpibl38lwguulk9,,5,click @5,,Kakva je kraj mene biciklom prošla djevojka?,Kraj mene je biciklom prošla vrlo lijepa djevojka.,ai,,,27,,
,Timer frame,html.Frame,2_22_1,,,,,,,,5761.700000011944,451529.8000000119,451543.4,451560.1,457321.8000000119,457321.89999997616,2024-05-21T20:43:36.427Z,457326.8,Dh-x6F29Zl,incremental,anketa,6645cf40bc81b65c5faccf1d,participant,hcpibl38lwguulk9,,,,,Kakva je kraj mene biciklom prošla djevojka?,Kraj mene je biciklom prošla vrlo lijepa djevojka.,ai,,,27,,
,Spremanje,canvas.Screen,2_22_2,,,,,,,skipped,,457322,,,457321.8000000119,457322.10000002384,2024-05-21T20:43:36.427Z,457326.8,Dh-x6F29Zl,incremental,anketa,6645cf40bc81b65c5faccf1d,participant,hcpibl38lwguulk9,,,,,Kakva je kraj mene biciklom prošla djevojka?,Kraj mene je biciklom prošla vrlo lijepa djevojka.,ai,,,27,,
,Question form,html.Form,2_22_3,,,,,,,skipped,,457322.1999999881,,,457321.8000000119,457322.3000000119,2024-05-21T20:43:36.428Z,457326.8,Dh-x6F29Zl,incremental,anketa,6645cf40bc81b65c5faccf1d,participant,hcpibl38lwguulk9,,,,,Kakva je kraj mene biciklom prošla djevojka?,Kraj mene je biciklom prošla vrlo lijepa djevojka.,ai,,,27,,
,Answer indication,canvas.Screen,2_22_4,,,,,,,skipped,,457323.10000002384,,,457321.8000000119,457323.1999999881,2024-05-21T20:43:36.429Z,457326.8,Dh-x6F29Zl,incremental,anketa,6645cf40bc81b65c5faccf1d,participant,hcpibl38lwguulk9,,,,,Kakva je kraj mene biciklom prošla djevojka?,Kraj mene je biciklom prošla vrlo lijepa djevojka.,ai,,,27,,
,inter-stimulus,canvas.Screen,2_22_5,,,,,,,response,1232.8000000238535,457323.3000000119,457310.23,457326.8,458559.60000002384,458561.1999999881,2024-05-21T20:43:37.667Z,458576.7,Dh-x6F29Zl,incremental,anketa,6645cf40bc81b65c5faccf1d,participant,hcpibl38lwguulk9,,,mousedown,,Kakva je kraj mene biciklom prošla djevojka?,Kraj mene je biciklom prošla vrlo lijepa djevojka.,ai,,,27,,
,Sequence,flow.Sequence,2_22,,,,,,,completion,9866.200000023819,448678.89999997616,448676.788,448693.4,458559.60000002384,458561.5,2024-05-21T20:43:37.667Z,458576.7,Dh-x6F29Zl,incremental,anketa,6645cf40bc81b65c5faccf1d,participant,hcpibl38lwguulk9,,,,,Kakva je kraj mene biciklom prošla djevojka?,Kraj mene je biciklom prošla vrlo lijepa djevojka.,ai,,,27,,
,context,canvas.Screen,2_23_0_0,,,,,,,response,2063.9999999880674,458561.89999997616,458560.194,458576.7,460640.6999999881,460641.5,2024-05-21T20:43:39.747Z,460643.4,Dh-x6F29Zl,incremental,anketa,6645cf40bc81b65c5faccf1d,participant,hcpibl38lwguulk9,,,click,,"Što je kupio tata, i spremila je majka?","Tata je kupio meso, a majka je spremila salatu.",csi,,,7,,
,Timer frame,html.Frame,2_23_0,,,,,,,,2064.90000002383,458561.60000002384,458560.194,458576.7,460641.60000002384,460641.6999999881,2024-05-21T20:43:39.747Z,460643.4,Dh-x6F29Zl,incremental,anketa,6645cf40bc81b65c5faccf1d,participant,hcpibl38lwguulk9,,,,,"Što je kupio tata, i spremila je majka?","Tata je kupio meso, a majka je spremila salatu.",csi,,,7,,
,stimulus,canvas.Screen,2_23_1_0,,,,,,,response,7187.299999988056,460642,460626.898,460643.4,467830.6999999881,467831.6999999881,2024-05-21T20:43:46.937Z,467843.4,Dh-x6F29Zl,incremental,anketa,6645cf40bc81b65c5faccf1d,participant,hcpibl38lwguulk9,,3,click @3,,"Što je kupio tata, i spremila je majka?","Tata je kupio meso, a majka je spremila salatu.",csi,,,7,,
,Timer frame,html.Frame,2_23_1,,,,,,,,7188.499999976135,460641.8000000119,460626.898,460643.4,467831.89999997616,467831.89999997616,2024-05-21T20:43:46.937Z,467843.4,Dh-x6F29Zl,incremental,anketa,6645cf40bc81b65c5faccf1d,participant,hcpibl38lwguulk9,,,,,"Što je kupio tata, i spremila je majka?","Tata je kupio meso, a majka je spremila salatu.",csi,,,7,,
,Spremanje,canvas.Screen,2_23_2,,,,,,,skipped,,467832,,,467831.89999997616,467832.10000002384,2024-05-21T20:43:46.938Z,467843.4,Dh-x6F29Zl,incremental,anketa,6645cf40bc81b65c5faccf1d,participant,hcpibl38lwguulk9,,,,,"Što je kupio tata, i spremila je majka?","Tata je kupio meso, a majka je spremila salatu.",csi,,,7,,
,Question form,html.Form,2_23_3,,,,,,,skipped,,467832.1999999881,,,467831.89999997616,467832.39999997616,2024-05-21T20:43:46.938Z,467843.4,Dh-x6F29Zl,incremental,anketa,6645cf40bc81b65c5faccf1d,participant,hcpibl38lwguulk9,,,,,"Što je kupio tata, i spremila je majka?","Tata je kupio meso, a majka je spremila salatu.",csi,,,7,,
,Answer indication,canvas.Screen,2_23_4,,,,,,,skipped,,467833.1999999881,,,467831.89999997616,467833.3000000119,2024-05-21T20:43:46.939Z,467843.4,Dh-x6F29Zl,incremental,anketa,6645cf40bc81b65c5faccf1d,participant,hcpibl38lwguulk9,,,,,"Što je kupio tata, i spremila je majka?","Tata je kupio meso, a majka je spremila salatu.",csi,,,7,,
,inter-stimulus,canvas.Screen,2_23_5,,,,,,,response,1996.9000000118976,467833.5,467827.364,467843.4,469840.3000000119,469841.39999997616,2024-05-21T20:43:48.947Z,469843.4,Dh-x6F29Zl,incremental,anketa,6645cf40bc81b65c5faccf1d,participant,hcpibl38lwguulk9,,,mousedown,,"Što je kupio tata, i spremila je majka?","Tata je kupio meso, a majka je spremila salatu.",csi,,,7,,
,Sequence,flow.Sequence,2_23,,,,,,,completion,11263.60000001191,458561.60000002384,458560.194,458576.7,469840.3000000119,469841.6999999881,2024-05-21T20:43:48.947Z,469843.4,Dh-x6F29Zl,incremental,anketa,6645cf40bc81b65c5faccf1d,participant,hcpibl38lwguulk9,,,,,"Što je kupio tata, i spremila je majka?","Tata je kupio meso, a majka je spremila salatu.",csi,,,7,,
,context,canvas.Screen,2_24_0_0,,,,,,,response,2793.4000000118976,469842,469826.894,469843.4,472636.8000000119,472637.6999999881,2024-05-21T20:43:51.743Z,472643.61,Dh-x6F29Zl,incremental,anketa,6645cf40bc81b65c5faccf1d,participant,hcpibl38lwguulk9,,,click,,Nešto se mu otac za punoljetnost poklonio.,Otac mu je za punoljetnost poklonio crveni Ferrari.,nf,,,42,,
,Timer frame,html.Frame,2_24_0,,,,,,,,2794.299999988056,469841.8000000119,469826.894,469843.4,472637.6999999881,472637.89999997616,2024-05-21T20:43:51.743Z,472643.61,Dh-x6F29Zl,incremental,anketa,6645cf40bc81b65c5faccf1d,participant,hcpibl38lwguulk9,,,,,Nešto se mu otac za punoljetnost poklonio.,Otac mu je za punoljetnost poklonio crveni Ferrari.,nf,,,42,,
,stimulus,canvas.Screen,2_24_1_0,,,,,,,response,5468.990000023856,472638.1999999881,472643.61,472643.61,478112.60000002384,478113.5,2024-05-21T20:43:57.219Z,478143.6,Dh-x6F29Zl,incremental,anketa,6645cf40bc81b65c5faccf1d,participant,hcpibl38lwguulk9,,1,click @1,,Nešto se mu otac za punoljetnost poklonio.,Otac mu je za punoljetnost poklonio crveni Ferrari.,nf,,,42,,
,Timer frame,html.Frame,2_24_1,,,,,,,,5470.190000011935,472638,472643.61,472643.61,478113.8000000119,478113.8000000119,2024-05-21T20:43:57.219Z,478143.6,Dh-x6F29Zl,incremental,anketa,6645cf40bc81b65c5faccf1d,participant,hcpibl38lwguulk9,,,,,Nešto se mu otac za punoljetnost poklonio.,Otac mu je za punoljetnost poklonio crveni Ferrari.,nf,,,42,,
,Spremanje,canvas.Screen,2_24_2,,,,,,,skipped,,478114,,,478113.8000000119,478114,2024-05-21T20:43:57.219Z,478143.6,Dh-x6F29Zl,incremental,anketa,6645cf40bc81b65c5faccf1d,participant,hcpibl38lwguulk9,,,,,Nešto se mu otac za punoljetnost poklonio.,Otac mu je za punoljetnost poklonio crveni Ferrari.,nf,,,42,,
,Question form,html.Form,2_24_3,,,,,,,skipped,,478114.1999999881,,,478113.8000000119,478114.3000000119,2024-05-21T20:43:57.220Z,478143.6,Dh-x6F29Zl,incremental,anketa,6645cf40bc81b65c5faccf1d,participant,hcpibl38lwguulk9,,,,,Nešto se mu otac za punoljetnost poklonio.,Otac mu je za punoljetnost poklonio crveni Ferrari.,nf,,,42,,
,Answer indication,canvas.Screen,2_24_4,,,,,,,skipped,,478115.1999999881,,,478113.8000000119,478115.39999997616,2024-05-21T20:43:57.221Z,478143.6,Dh-x6F29Zl,incremental,anketa,6645cf40bc81b65c5faccf1d,participant,hcpibl38lwguulk9,,,,,Nešto se mu otac za punoljetnost poklonio.,Otac mu je za punoljetnost poklonio crveni Ferrari.,nf,,,42,,
,inter-stimulus,canvas.Screen,2_24_5,,,,,,,response,1634.0000000238651,478115.39999997616,478126.884,478143.6,479777.60000002384,479778.8000000119,2024-05-21T20:43:58.884Z,479794,Dh-x6F29Zl,incremental,anketa,6645cf40bc81b65c5faccf1d,participant,hcpibl38lwguulk9,,,mousedown,,Nešto se mu otac za punoljetnost poklonio.,Otac mu je za punoljetnost poklonio crveni Ferrari.,nf,,,42,,
,Sequence,flow.Sequence,2_24,,,,,,,completion,9934.200000023819,469841.8000000119,469826.894,469843.4,479777.60000002384,479779.10000002384,2024-05-21T20:43:58.884Z,479794,Dh-x6F29Zl,incremental,anketa,6645cf40bc81b65c5faccf1d,participant,hcpibl38lwguulk9,,,,,Nešto se mu otac za punoljetnost poklonio.,Otac mu je za punoljetnost poklonio crveni Ferrari.,nf,,,42,,
,context,canvas.Screen,2_25_0_0,,,,,,,response,2950.699999988079,479779.39999997616,479776.944,479794,482744.6999999881,482745.5,2024-05-21T20:44:01.851Z,482760.2,Dh-x6F29Zl,incremental,anketa,6645cf40bc81b65c5faccf1d,participant,hcpibl38lwguulk9,,,click,,Večeras je Anna nalakirala nokte.,Anna je večeras nalakirala nokte.,gf,,,49,,
,Timer frame,html.Frame,2_25_0,,,,,,,,2951.800000011921,479779.1999999881,479776.944,479794,482745.8000000119,482745.8000000119,2024-05-21T20:44:01.851Z,482760.2,Dh-x6F29Zl,incremental,anketa,6645cf40bc81b65c5faccf1d,participant,hcpibl38lwguulk9,,,,,Večeras je Anna nalakirala nokte.,Anna je večeras nalakirala nokte.,gf,,,49,,
,stimulus,canvas.Screen,2_25_1_0,,,,,,,response,7476.90000002383,482746.1999999881,482743.694,482760.2,490237.10000002384,490238.10000002384,2024-05-21T20:44:09.343Z,490243.5,Dh-x6F29Zl,incremental,anketa,6645cf40bc81b65c5faccf1d,participant,hcpibl38lwguulk9,,6,click @6,,Večeras je Anna nalakirala nokte.,Anna je večeras nalakirala nokte.,gf,,,49,,
,Timer frame,html.Frame,2_25_1,,,,,,,,7478.100000011909,482745.89999997616,482743.694,482760.2,490238.3000000119,490238.5,2024-05-21T20:44:09.343Z,490243.5,Dh-x6F29Zl,incremental,anketa,6645cf40bc81b65c5faccf1d,participant,hcpibl38lwguulk9,,,,,Večeras je Anna nalakirala nokte.,Anna je večeras nalakirala nokte.,gf,,,49,,
,Spremanje,canvas.Screen,2_25_2,,,,,,,skipped,,490238.60000002384,,,490238.3000000119,490238.60000002384,2024-05-21T20:44:09.343Z,490243.5,Dh-x6F29Zl,incremental,anketa,6645cf40bc81b65c5faccf1d,participant,hcpibl38lwguulk9,,,,,Večeras je Anna nalakirala nokte.,Anna je večeras nalakirala nokte.,gf,,,49,,
,Question form,html.Form,2_25_3,,,,,,,skipped,,490238.6999999881,,,490238.3000000119,490238.8000000119,2024-05-21T20:44:09.344Z,490243.5,Dh-x6F29Zl,incremental,anketa,6645cf40bc81b65c5faccf1d,participant,hcpibl38lwguulk9,,,,,Večeras je Anna nalakirala nokte.,Anna je večeras nalakirala nokte.,gf,,,49,,
,Answer indication,canvas.Screen,2_25_4,,,,,,,skipped,,490239.60000002384,,,490238.3000000119,490239.6999999881,2024-05-21T20:44:09.345Z,490243.5,Dh-x6F29Zl,incremental,anketa,6645cf40bc81b65c5faccf1d,participant,hcpibl38lwguulk9,,,,,Večeras je Anna nalakirala nokte.,Anna je večeras nalakirala nokte.,gf,,,49,,
,inter-stimulus,canvas.Screen,2_25_5,,,,,,,response,1296.1000000238419,490239.8000000119,490226.864,490243.5,491539.60000002384,491540.60000002384,2024-05-21T20:44:10.645Z,491543.642,Dh-x6F29Zl,incremental,anketa,6645cf40bc81b65c5faccf1d,participant,hcpibl38lwguulk9,,,mousedown,,Večeras je Anna nalakirala nokte.,Anna je večeras nalakirala nokte.,gf,,,49,,
,Sequence,flow.Sequence,2_25,,,,,,,completion,11745.600000023842,479779.1999999881,479776.944,479794,491539.60000002384,491540.89999997616,2024-05-21T20:44:10.646Z,491543.642,Dh-x6F29Zl,incremental,anketa,6645cf40bc81b65c5faccf1d,participant,hcpibl38lwguulk9,,,,,Večeras je Anna nalakirala nokte.,Anna je večeras nalakirala nokte.,gf,,,49,,
,context,canvas.Screen,2_26_0_0,,,,,,,response,1863.1580000119284,491541.1999999881,491543.642,491543.642,493406.8000000119,493407.6999999881,2024-05-21T20:44:12.512Z,493426.9,Dh-x6F29Zl,incremental,anketa,6645cf40bc81b65c5faccf1d,participant,hcpibl38lwguulk9,,,click,,Što Miloš je opljačkao banku da kupi?,Miloš je opljačkao banku da kupi kuću.,ai,,,20,,
,Timer frame,html.Frame,2_26_0,,,,,,,,1864.2579999761656,491541,491543.642,491543.642,493407.89999997616,493408,2024-05-21T20:44:12.513Z,493426.9,Dh-x6F29Zl,incremental,anketa,6645cf40bc81b65c5faccf1d,participant,hcpibl38lwguulk9,,,,,Što Miloš je opljačkao banku da kupi?,Miloš je opljačkao banku da kupi kuću.,ai,,,20,,
,stimulus,canvas.Screen,2_26_1_0,,,,,,,response,8383.900000011898,493408.3000000119,493410.264,493426.9,501810.8000000119,501811.8000000119,2024-05-21T20:44:20.917Z,501843.5,Dh-x6F29Zl,incremental,anketa,6645cf40bc81b65c5faccf1d,participant,hcpibl38lwguulk9,,3,click @3,,Što Miloš je opljačkao banku da kupi?,Miloš je opljačkao banku da kupi kuću.,ai,,,20,,
,Timer frame,html.Frame,2_26_1,,,,,,,,8384.999999976135,493408.10000002384,493410.264,493426.9,501811.89999997616,501812,2024-05-21T20:44:20.917Z,501843.5,Dh-x6F29Zl,incremental,anketa,6645cf40bc81b65c5faccf1d,participant,hcpibl38lwguulk9,,,,,Što Miloš je opljačkao banku da kupi?,Miloš je opljačkao banku da kupi kuću.,ai,,,20,,
,Spremanje,canvas.Screen,2_26_2,,,,,,,skipped,,501812.1999999881,,,501811.89999997616,501812.3000000119,2024-05-21T20:44:20.917Z,501843.5,Dh-x6F29Zl,incremental,anketa,6645cf40bc81b65c5faccf1d,participant,hcpibl38lwguulk9,,,,,Što Miloš je opljačkao banku da kupi?,Miloš je opljačkao banku da kupi kuću.,ai,,,20,,
,Question form,html.Form,2_26_3,,,,,,,skipped,,501812.39999997616,,,501811.89999997616,501812.39999997616,2024-05-21T20:44:20.917Z,501843.5,Dh-x6F29Zl,incremental,anketa,6645cf40bc81b65c5faccf1d,participant,hcpibl38lwguulk9,,,,,Što Miloš je opljačkao banku da kupi?,Miloš je opljačkao banku da kupi kuću.,ai,,,20,,
,Answer indication,canvas.Screen,2_26_4,,,,,,,skipped,,501813.39999997616,,,501811.89999997616,501813.5,2024-05-21T20:44:20.918Z,501843.5,Dh-x6F29Zl,incremental,anketa,6645cf40bc81b65c5faccf1d,participant,hcpibl38lwguulk9,,,,,Što Miloš je opljačkao banku da kupi?,Miloš je opljačkao banku da kupi kuću.,ai,,,20,,
,inter-stimulus,canvas.Screen,2_26_5,,,,,,,response,2210.5,501813.60000002384,501826.9,501843.5,504054,504055.10000002384,2024-05-21T20:44:23.160Z,504060.2,Dh-x6F29Zl,incremental,anketa,6645cf40bc81b65c5faccf1d,participant,hcpibl38lwguulk9,,,mousedown,,Što Miloš je opljačkao banku da kupi?,Miloš je opljačkao banku da kupi kuću.,ai,,,20,,
,Sequence,flow.Sequence,2_26,,,,,,,completion,12510.358000000007,491541,491543.642,491543.642,504054,504055.39999997616,2024-05-21T20:44:23.160Z,504060.2,Dh-x6F29Zl,incremental,anketa,6645cf40bc81b65c5faccf1d,participant,hcpibl38lwguulk9,,,,,Što Miloš je opljačkao banku da kupi?,Miloš je opljačkao banku da kupi kuću.,ai,,,20,,
,context,canvas.Screen,2_27_0_0,,,,,,,response,2476.6000000119093,504055.6999999881,504043.694,504060.2,506536.8000000119,506537.6999999881,2024-05-21T20:44:25.642Z,506543.6,Dh-x6F29Zl,incremental,anketa,6645cf40bc81b65c5faccf1d,participant,hcpibl38lwguulk9,,,click,,O čemu je Ivo cijelu večer pričao?,Ivo je cijelu večer pričao o autima.,gf,,,47,,
,Timer frame,html.Frame,2_27_0,,,,,,,,2477.6999999761465,504055.5,504043.694,504060.2,506537.89999997616,506537.89999997616,2024-05-21T20:44:25.643Z,506543.6,Dh-x6F29Zl,incremental,anketa,6645cf40bc81b65c5faccf1d,participant,hcpibl38lwguulk9,,,,,O čemu je Ivo cijelu večer pričao?,Ivo je cijelu večer pričao o autima.,gf,,,47,,
,stimulus,canvas.Screen,2_27_1_0,,,,,,,response,4467.200000011944,506538.3000000119,506527.198,506543.6,511010.8000000119,511011.8000000119,2024-05-21T20:44:30.117Z,511043.7,Dh-x6F29Zl,incremental,anketa,6645cf40bc81b65c5faccf1d,participant,hcpibl38lwguulk9,,7,click @7,,O čemu je Ivo cijelu večer pričao?,Ivo je cijelu večer pričao o autima.,gf,,,47,,
,Timer frame,html.Frame,2_27_1,,,,,,,,4468.299999976181,506538.10000002384,506527.198,506543.6,511011.89999997616,511012,2024-05-21T20:44:30.117Z,511043.7,Dh-x6F29Zl,incremental,anketa,6645cf40bc81b65c5faccf1d,participant,hcpibl38lwguulk9,,,,,O čemu je Ivo cijelu večer pričao?,Ivo je cijelu večer pričao o autima.,gf,,,47,,
,Spremanje,canvas.Screen,2_27_2,,,,,,,skipped,,511012.10000002384,,,511011.89999997616,511012.1999999881,2024-05-21T20:44:30.117Z,511043.7,Dh-x6F29Zl,incremental,anketa,6645cf40bc81b65c5faccf1d,participant,hcpibl38lwguulk9,,,,,O čemu je Ivo cijelu večer pričao?,Ivo je cijelu večer pričao o autima.,gf,,,47,,
,Question form,html.Form,2_27_3,,,,,,,skipped,,511012.3000000119,,,511011.89999997616,511012.39999997616,2024-05-21T20:44:30.117Z,511043.7,Dh-x6F29Zl,incremental,anketa,6645cf40bc81b65c5faccf1d,participant,hcpibl38lwguulk9,,,,,O čemu je Ivo cijelu večer pričao?,Ivo je cijelu večer pričao o autima.,gf,,,47,,
,Answer indication,canvas.Screen,2_27_4,,,,,,,skipped,,511013.1999999881,,,511011.89999997616,511013.3000000119,2024-05-21T20:44:30.118Z,511043.7,Dh-x6F29Zl,incremental,anketa,6645cf40bc81b65c5faccf1d,participant,hcpibl38lwguulk9,,,,,O čemu je Ivo cijelu večer pričao?,Ivo je cijelu večer pričao o autima.,gf,,,47,,
,inter-stimulus,canvas.Screen,2_27_5,,,,,,,response,1292.1000000119093,511013.39999997616,511027.06,511043.7,512335.8000000119,512337.1999999881,2024-05-21T20:44:31.442Z,512343.5,Dh-x6F29Zl,incremental,anketa,6645cf40bc81b65c5faccf1d,participant,hcpibl38lwguulk9,,,mousedown,,O čemu je Ivo cijelu večer pričao?,Ivo je cijelu večer pričao o autima.,gf,,,47,,
,Sequence,flow.Sequence,2_27,,,,,,,completion,8275.60000001191,504055.5,504043.694,504060.2,512335.8000000119,512337.60000002384,2024-05-21T20:44:31.442Z,512343.5,Dh-x6F29Zl,incremental,anketa,6645cf40bc81b65c5faccf1d,participant,hcpibl38lwguulk9,,,,,O čemu je Ivo cijelu večer pričao?,Ivo je cijelu večer pričao o autima.,gf,,,47,,
,context,canvas.Screen,2_28_0_0,,,,,,,response,1303.1000000238419,512337.89999997616,512327.096,512343.5,513646.60000002384,513647.39999997616,2024-05-21T20:44:32.752Z,513677.1,Dh-x6F29Zl,incremental,anketa,6645cf40bc81b65c5faccf1d,participant,hcpibl38lwguulk9,,,click,,"Što je on plakao, čitajući?","On je plakao, čitajući knjigu.",ai,,,22,,
,Timer frame,html.Frame,2_28_0,,,,,,,,1304.1000000238419,512337.6999999881,512327.096,512343.5,513647.60000002384,513647.6999999881,2024-05-21T20:44:32.752Z,513677.1,Dh-x6F29Zl,incremental,anketa,6645cf40bc81b65c5faccf1d,participant,hcpibl38lwguulk9,,,,,"Što je on plakao, čitajući?","On je plakao, čitajući knjigu.",ai,,,22,,
,stimulus,canvas.Screen,2_28_1_0,,,,,,,response,9475.700000011944,513648,513660.416,513677.1,523152.8000000119,523154.10000002384,2024-05-21T20:44:42.259Z,523177.1,Dh-x6F29Zl,incremental,anketa,6645cf40bc81b65c5faccf1d,participant,hcpibl38lwguulk9,,2,click @2,,"Što je on plakao, čitajući?","On je plakao, čitajući knjigu.",ai,,,22,,
,Timer frame,html.Frame,2_28_1,,,,,,,,9477.200000011944,513647.6999999881,513660.416,513677.1,523154.3000000119,523154.3000000119,2024-05-21T20:44:42.259Z,523177.1,Dh-x6F29Zl,incremental,anketa,6645cf40bc81b65c5faccf1d,participant,hcpibl38lwguulk9,,,,,"Što je on plakao, čitajući?","On je plakao, čitajući knjigu.",ai,,,22,,
,Spremanje,canvas.Screen,2_28_2,,,,,,,skipped,,523154.39999997616,,,523154.3000000119,523154.60000002384,2024-05-21T20:44:42.259Z,523177.1,Dh-x6F29Zl,incremental,anketa,6645cf40bc81b65c5faccf1d,participant,hcpibl38lwguulk9,,,,,"Što je on plakao, čitajući?","On je plakao, čitajući knjigu.",ai,,,22,,
,Question form,html.Form,2_28_3,,,,,,,skipped,,523154.60000002384,,,523154.3000000119,523154.6999999881,2024-05-21T20:44:42.259Z,523177.1,Dh-x6F29Zl,incremental,anketa,6645cf40bc81b65c5faccf1d,participant,hcpibl38lwguulk9,,,,,"Što je on plakao, čitajući?","On je plakao, čitajući knjigu.",ai,,,22,,
,Answer indication,canvas.Screen,2_28_4,,,,,,,skipped,,523155.8000000119,,,523154.3000000119,523155.89999997616,2024-05-21T20:44:42.261Z,523177.1,Dh-x6F29Zl,incremental,anketa,6645cf40bc81b65c5faccf1d,participant,hcpibl38lwguulk9,,,,,"Što je on plakao, čitajući?","On je plakao, čitajući knjigu.",ai,,,22,,
,inter-stimulus,canvas.Screen,2_28_5,,,,,,,response,1016.7999999761814,523156,523160.6,523177.1,524193.89999997616,524195,2024-05-21T20:44:43.300Z,524227,Dh-x6F29Zl,incremental,anketa,6645cf40bc81b65c5faccf1d,participant,hcpibl38lwguulk9,,,mousedown,,"Što je on plakao, čitajući?","On je plakao, čitajući knjigu.",ai,,,22,,
,Sequence,flow.Sequence,2_28,,,,,,,completion,11850.399999976158,512337.6999999881,512327.096,512343.5,524193.89999997616,524195.3000000119,2024-05-21T20:44:43.300Z,524227,Dh-x6F29Zl,incremental,anketa,6645cf40bc81b65c5faccf1d,participant,hcpibl38lwguulk9,,,,,"Što je on plakao, čitajući?","On je plakao, čitajući knjigu.",ai,,,22,,
,context,canvas.Screen,2_29_0_0,,,,,,,response,3127.699999988079,524195.6999999881,524210.556,524227,527354.6999999881,527355.6000000238,2024-05-21T20:44:46.460Z,527376.9,Dh-x6F29Zl,incremental,anketa,6645cf40bc81b65c5faccf1d,participant,hcpibl38lwguulk9,,,click,,Što je kupio i majicu?,On je kupio tenisice I majicu.,csi,0,0,0,,
,Timer frame,html.Frame,2_29_0,,,,,,,,3128.699999988079,524195.39999997616,524210.556,524227,527355.6999999881,527355.8999999762,2024-05-21T20:44:46.461Z,527376.9,Dh-x6F29Zl,incremental,anketa,6645cf40bc81b65c5faccf1d,participant,hcpibl38lwguulk9,,,,,Što je kupio i majicu?,On je kupio tenisice I majicu.,csi,0,0,0,,
,stimulus,canvas.Screen,2_29_1_0,,,,,,,response,5940.299999988056,527356.1999999881,527360.4,527376.9,533317.1999999881,533318.3000000119,2024-05-21T20:44:52.423Z,533343.8,Dh-x6F29Zl,incremental,anketa,6645cf40bc81b65c5faccf1d,participant,hcpibl38lwguulk9,,4,click @4,,Što je kupio i majicu?,On je kupio tenisice I majicu.,csi,0,0,0,,
,Timer frame,html.Frame,2_29_1,,,,,,,,5941.599999999977,527355.8999999762,527360.4,527376.9,533318.5,533318.6000000238,2024-05-21T20:44:52.423Z,533343.8,Dh-x6F29Zl,incremental,anketa,6645cf40bc81b65c5faccf1d,participant,hcpibl38lwguulk9,,,,,Što je kupio i majicu?,On je kupio tenisice I majicu.,csi,0,0,0,,
,Spremanje,canvas.Screen,2_29_2,,,,,,,skipped,,533318.6999999881,,,533318.5,533318.8000000119,2024-05-21T20:44:52.424Z,533343.8,Dh-x6F29Zl,incremental,anketa,6645cf40bc81b65c5faccf1d,participant,hcpibl38lwguulk9,,,,,Što je kupio i majicu?,On je kupio tenisice I majicu.,csi,0,0,0,,
,Question form,html.Form,2_29_3,,,,,,,skipped,,533318.8999999762,,,533318.5,533319,2024-05-21T20:44:52.424Z,533343.8,Dh-x6F29Zl,incremental,anketa,6645cf40bc81b65c5faccf1d,participant,hcpibl38lwguulk9,,,,,Što je kupio i majicu?,On je kupio tenisice I majicu.,csi,0,0,0,,
,Answer indication,canvas.Screen,2_29_4,,,,,,,skipped,,533320.1000000238,,,533318.5,533320.1999999881,2024-05-21T20:44:52.425Z,533343.8,Dh-x6F29Zl,incremental,anketa,6645cf40bc81b65c5faccf1d,participant,hcpibl38lwguulk9,,,,,Što je kupio i majicu?,On je kupio tenisice I majicu.,csi,0,0,0,,
,inter-stimulus,canvas.Screen,2_29_5,,,,,,,response,1014.6999999999534,533320.3999999762,533327.104,533343.8,534358.5,534359.6999999881,2024-05-21T20:44:53.465Z,534377.5,Dh-x6F29Zl,incremental,anketa,6645cf40bc81b65c5faccf1d,participant,hcpibl38lwguulk9,,,mousedown,,Što je kupio i majicu?,On je kupio tenisice I majicu.,csi,0,0,0,,
,Sequence,flow.Sequence,2_29,,,,,,,completion,10131.5,524195.39999997616,524210.556,524227,534358.5,534360,2024-05-21T20:44:53.465Z,534377.5,Dh-x6F29Zl,incremental,anketa,6645cf40bc81b65c5faccf1d,participant,hcpibl38lwguulk9,,,,,Što je kupio i majicu?,On je kupio tenisice I majicu.,csi,0,0,0,,
,context,canvas.Screen,2_30_0_0,,,,,,,response,1231.3999999761581,534360.3999999762,534360.52,534377.5,535608.8999999762,535609.6999999881,2024-05-21T20:44:54.714Z,535610.5,Dh-x6F29Zl,incremental,anketa,6645cf40bc81b65c5faccf1d,participant,hcpibl38lwguulk9,,,click,,U sutra ne samo svatko jedan može gledati.,Ne može svatko gledati u sutra.,nf,,,45,,
,Timer frame,html.Frame,2_30_0,,,,,,,,1232.3999999761581,534360.1000000238,534360.52,534377.5,535609.8999999762,535610,2024-05-21T20:44:54.715Z,535610.5,Dh-x6F29Zl,incremental,anketa,6645cf40bc81b65c5faccf1d,participant,hcpibl38lwguulk9,,,,,U sutra ne samo svatko jedan može gledati.,Ne može svatko gledati u sutra.,nf,,,45,,
,stimulus,canvas.Screen,2_30_1_0,,,,,,,response,6980.399999976158,535610.1999999881,535610.498,535610.5,542590.8999999762,542591.8000000119,2024-05-21T20:45:01.697Z,542611.6,Dh-x6F29Zl,incremental,anketa,6645cf40bc81b65c5faccf1d,participant,hcpibl38lwguulk9,,1,click @1,,U sutra ne samo svatko jedan može gledati.,Ne može svatko gledati u sutra.,nf,,,45,,
