meta,sender,sender_type,sender_id,age,education,croatian-knowledge,occupation,,ended_on,duration,time_run,time_render,time_show,time_end,time_commit,timestamp,time_switch,openLabId,type,task,project,status,code,confirmationCode,response,response_action,answer_true,stimulus,context,island_type,transfer_s,transfer_c,id,right_answer,question,change_date
"{""labjs_version"":""20.2.4"",""labjs_build"":{""flavor"":""production"",""commit"":""f5b4a49f956347addd546a832a3327688c2c0fef""},""location"":""https://open-lab.online/test/anketa/66713664eed7e641ddd30c01"",""userAgent"":""Mozilla/5.0 (Windows NT 10.0; Win64; x64; rv:126.0) Gecko/20100101 Firefox/126.0"",""platform"":""Win32"",""language"":""hr"",""locale"":""hr-HR"",""timeZone"":""Europe/Zagreb"",""timezoneOffset"":-120,""screen_width"":1536,""screen_height"":864,""scroll_width"":1536,""scroll_height"":683,""window_innerWidth"":1536,""window_innerHeight"":731,""devicePixelRatio"":1.25}",Demography form,html.Form,0,57,phd,mother-tongue,filolog,,form submission,24020.58,3533,3538.74,3555.42,27576,27579,2024-06-18T07:25:51.114Z,27585.42,Dpgv3oGnIS,incremental,anketa,6645cf40bc81b65c5faccf1d,participant,hcpibd0dlxk2xq24,490393,,,,,,,,,,,,
,context,canvas.Screen,1_0,,,,,,response,10136.580000000002,27580,27567.82,27585.42,37722,37736,2024-06-18T07:26:01.272Z,37750.72,Dpgv3oGnIS,incremental,anketa,6645cf40bc81b65c5faccf1d,participant,hcpibd0dlxk2xq24,,,click,,,,,,,,,,
,stimulus,canvas.Screen,1_1,,,,,,response,25424.28,37737,37735.02,37750.72,63175,63196,2024-06-18T07:26:26.732Z,63197.26,Dpgv3oGnIS,incremental,anketa,6645cf40bc81b65c5faccf1d,participant,hcpibd0dlxk2xq24,,7,click @7,,,,,,,,,,
,inter-stimulus,canvas.Screen,1_2,,,,,,response,11070.739999999998,63196,63194.74,63197.26,74268,74282,2024-06-18T07:26:37.817Z,74279.1,Dpgv3oGnIS,incremental,anketa,6645cf40bc81b65c5faccf1d,participant,hcpibd0dlxk2xq24,,,mousedown,,,,,,,,,,
,context,canvas.Screen,1_3,,,,,,response,6723.899999999994,74282,74275.64,74279.1,81003,81015,2024-06-18T07:26:44.551Z,81028,Dpgv3oGnIS,incremental,anketa,6645cf40bc81b65c5faccf1d,participant,hcpibd0dlxk2xq24,,,click,,,,,,,,,,
,stimulus,canvas.Screen,1_4,,,,,,response,17678,81016,81014.52,81028,98706,98717,2024-06-18T07:27:02.253Z,98725.6,Dpgv3oGnIS,incremental,anketa,6645cf40bc81b65c5faccf1d,participant,hcpibd0dlxk2xq24,,1,click @1,,,,,,,,,,
,inter-stimulus,canvas.Screen,1_5,,,,,,response,1386.3999999999942,98718,98715.54,98725.6,100112,100120,2024-06-18T07:27:03.656Z,100119.58,Dpgv3oGnIS,incremental,anketa,6645cf40bc81b65c5faccf1d,participant,hcpibd0dlxk2xq24,,,mousedown,,,,,,,,,,
,context,canvas.Screen,1_6,,,,,,response,5477.419999999998,100120,100118.96,100119.58,105597,105604,2024-06-18T07:27:09.140Z,105607.86,Dpgv3oGnIS,incremental,anketa,6645cf40bc81b65c5faccf1d,participant,hcpibd0dlxk2xq24,,,click,,,,,,,,,,
,stimulus,canvas.Screen,1_7_0,,,,,,response,6598.139999999999,105604,105602.92,105607.86,112206,112212,2024-06-18T07:27:15.747Z,112223.56,Dpgv3oGnIS,incremental,anketa,6645cf40bc81b65c5faccf1d,participant,hcpibd0dlxk2xq24,,7,click @7,,,,,,,,,,
,Timer frame,html.Frame,1_7,,,,,,,6604.139999999999,105604,105602.92,105607.86,112212,112213,2024-06-18T07:27:15.748Z,112223.56,Dpgv3oGnIS,incremental,anketa,6645cf40bc81b65c5faccf1d,participant,hcpibd0dlxk2xq24,,,,,,,,,,,,,
,Screen,canvas.Screen,1_8,,,,,,response,9607.440000000002,112213,112210.6,112223.56,121831,121854,2024-06-18T07:27:25.389Z,121855.88,Dpgv3oGnIS,incremental,anketa,6645cf40bc81b65c5faccf1d,participant,hcpibd0dlxk2xq24,,,mousedown,,,,,,,,,,
,Question form,html.Form,1_9,,,,,,form submission,9372.119999999995,121854,121852.22,121855.88,131228,131229,2024-06-18T07:27:34.764Z,131238.56,Dpgv3oGnIS,incremental,anketa,6645cf40bc81b65c5faccf1d,participant,hcpibd0dlxk2xq24,,,,ne znam,,,,,,,,,
,Screen,canvas.Screen,1_10,,,,,,response,5358.440000000002,131236,131226.64,131238.56,136597,136614,2024-06-18T07:27:40.150Z,136620.28,Dpgv3oGnIS,incremental,anketa,6645cf40bc81b65c5faccf1d,participant,hcpibd0dlxk2xq24,,,mousedown,,,,,,,,,,
,inter-stimulus,canvas.Screen,1_11,,,,,,response,4663.720000000001,136616,136611.44,136620.28,141284,141294,2024-06-18T07:27:44.830Z,141303.32,Dpgv3oGnIS,incremental,anketa,6645cf40bc81b65c5faccf1d,participant,hcpibd0dlxk2xq24,,,mousedown,,,,,,,,,,
,First stimuli,flow.Sequence,1,,,,,,completion,113698.58,27580,27567.82,27585.42,141284,141295,2024-06-18T07:27:44.831Z,141303.32,Dpgv3oGnIS,incremental,anketa,6645cf40bc81b65c5faccf1d,participant,hcpibd0dlxk2xq24,,,,,,,,,,,,,
,context,canvas.Screen,2_0_0_0,,,,,,response,3433.679999999993,141297,141291.54,141303.32,144737,144756,2024-06-18T07:27:48.292Z,144769.06,Dpgv3oGnIS,incremental,anketa,6645cf40bc81b65c5faccf1d,participant,hcpibd0dlxk2xq24,,,click,,Odakle si pješke ići prema Zadru?,Ideš pješke od Splita prema Zadru.,nf,,,44,,,
,Timer frame,html.Frame,2_0_0,,,,,,,3452.679999999993,141296,141291.54,141303.32,144756,144757,2024-06-18T07:27:48.292Z,144769.06,Dpgv3oGnIS,incremental,anketa,6645cf40bc81b65c5faccf1d,participant,hcpibd0dlxk2xq24,,,,,Odakle si pješke ići prema Zadru?,Ideš pješke od Splita prema Zadru.,nf,,,44,,,
,stimulus,canvas.Screen,2_0_1_0,,,,,,response,5202.940000000002,144757,144755.14,144769.06,149972,149984,2024-06-18T07:27:53.520Z,149984.94,Dpgv3oGnIS,incremental,anketa,6645cf40bc81b65c5faccf1d,participant,hcpibd0dlxk2xq24,,1,click @1,,Odakle si pješke ići prema Zadru?,Ideš pješke od Splita prema Zadru.,nf,,,44,,,
,Timer frame,html.Frame,2_0_1,,,,,,,5214.940000000002,144757,144755.14,144769.06,149984,149984,2024-06-18T07:27:53.520Z,149984.94,Dpgv3oGnIS,incremental,anketa,6645cf40bc81b65c5faccf1d,participant,hcpibd0dlxk2xq24,,,,,Odakle si pješke ići prema Zadru?,Ideš pješke od Splita prema Zadru.,nf,,,44,,,
,Spremanje,canvas.Screen,2_0_2,,,,,,skipped,,149984,,,149984,149985,2024-06-18T07:27:53.521Z,149984.94,Dpgv3oGnIS,incremental,anketa,6645cf40bc81b65c5faccf1d,participant,hcpibd0dlxk2xq24,,,,,Odakle si pješke ići prema Zadru?,Ideš pješke od Splita prema Zadru.,nf,,,44,,,
,Question form,html.Form,2_0_3,,,,,,skipped,,149985,,,149984,149986,2024-06-18T07:27:53.521Z,149984.94,Dpgv3oGnIS,incremental,anketa,6645cf40bc81b65c5faccf1d,participant,hcpibd0dlxk2xq24,,,,,Odakle si pješke ići prema Zadru?,Ideš pješke od Splita prema Zadru.,nf,,,44,,,
,Answer indication,canvas.Screen,2_0_4,,,,,,skipped,,149992,,,149984,149993,2024-06-18T07:27:53.527Z,149984.94,Dpgv3oGnIS,incremental,anketa,6645cf40bc81b65c5faccf1d,participant,hcpibd0dlxk2xq24,,,,,Odakle si pješke ići prema Zadru?,Ideš pješke od Splita prema Zadru.,nf,,,44,,,
,inter-stimulus,canvas.Screen,2_0_5,,,,,,response,1081.0599999999977,149993,149982.46,149984.94,151066,151082,2024-06-18T07:27:54.618Z,151101.54,Dpgv3oGnIS,incremental,anketa,6645cf40bc81b65c5faccf1d,participant,hcpibd0dlxk2xq24,,,mousedown,,Odakle si pješke ići prema Zadru?,Ideš pješke od Splita prema Zadru.,nf,,,44,,,
,Sequence,flow.Sequence,2_0,,,,,,completion,9762.679999999993,141296,141291.54,141303.32,151066,151084,2024-06-18T07:27:54.619Z,151101.54,Dpgv3oGnIS,incremental,anketa,6645cf40bc81b65c5faccf1d,participant,hcpibd0dlxk2xq24,,,,,Odakle si pješke ići prema Zadru?,Ideš pješke od Splita prema Zadru.,nf,,,44,,,
,context,canvas.Screen,2_1_0_0,,,,,,response,6385.459999999992,151084,151084.9,151101.54,157487,157495,2024-06-18T07:28:01.031Z,157500.42,Dpgv3oGnIS,incremental,anketa,6645cf40bc81b65c5faccf1d,participant,hcpibd0dlxk2xq24,,,click,,Tko je jučer susjedu ukrao kobasicu?,Jučer je riđa mačka susjedu ukrala kobasicu.,gf,,,50,KOBASICU; KOBASICA,Što je ukrala mačka?,
,Timer frame,html.Frame,2_1_0,,,,,,,6393.459999999992,151084,151084.9,151101.54,157495,157497,2024-06-18T07:28:01.031Z,157500.42,Dpgv3oGnIS,incremental,anketa,6645cf40bc81b65c5faccf1d,participant,hcpibd0dlxk2xq24,,,,,Tko je jučer susjedu ukrao kobasicu?,Jučer je riđa mačka susjedu ukrala kobasicu.,gf,,,50,KOBASICU; KOBASICA,Što je ukrala mačka?,
,stimulus,canvas.Screen,2_1_1_0,,,,,,response,5236.579999999987,157497,157494.58,157500.42,162737,162748,2024-06-18T07:28:06.284Z,162749.84,Dpgv3oGnIS,incremental,anketa,6645cf40bc81b65c5faccf1d,participant,hcpibd0dlxk2xq24,,7,click @7,,Tko je jučer susjedu ukrao kobasicu?,Jučer je riđa mačka susjedu ukrala kobasicu.,gf,,,50,KOBASICU; KOBASICA,Što je ukrala mačka?,
,Timer frame,html.Frame,2_1_1,,,,,,,5247.579999999987,157497,157494.58,157500.42,162748,162748,2024-06-18T07:28:06.284Z,162749.84,Dpgv3oGnIS,incremental,anketa,6645cf40bc81b65c5faccf1d,participant,hcpibd0dlxk2xq24,,,,,Tko je jučer susjedu ukrao kobasicu?,Jučer je riđa mačka susjedu ukrala kobasicu.,gf,,,50,KOBASICU; KOBASICA,Što je ukrala mačka?,
,Spremanje,canvas.Screen,2_1_2,,,,,,response,2769.1600000000035,162748,162746.58,162749.84,165519,165526,2024-06-18T07:28:09.062Z,165533.16,Dpgv3oGnIS,incremental,anketa,6645cf40bc81b65c5faccf1d,participant,hcpibd0dlxk2xq24,,,mousedown,,Tko je jučer susjedu ukrao kobasicu?,Jučer je riđa mačka susjedu ukrala kobasicu.,gf,,,50,KOBASICU; KOBASICA,Što je ukrala mačka?,
,Question form,html.Form,2_1_3,,,,,,form submission,6074.8399999999965,165526,165524.3,165533.16,171608,171609,2024-06-18T07:28:15.145Z,171615.28,Dpgv3oGnIS,incremental,anketa,6645cf40bc81b65c5faccf1d,participant,hcpibd0dlxk2xq24,,,,kobasicu,Tko je jučer susjedu ukrao kobasicu?,Jučer je riđa mačka susjedu ukrala kobasicu.,gf,,,50,KOBASICU; KOBASICA,Što je ukrala mačka?,
,Answer indication,canvas.Screen,2_1_4,,,,,,response,4559.720000000001,171612,171605.6,171615.28,176175,176180,2024-06-18T07:28:19.715Z,176198.08,Dpgv3oGnIS,incremental,anketa,6645cf40bc81b65c5faccf1d,participant,hcpibd0dlxk2xq24,,,mousedown,,Tko je jučer susjedu ukrao kobasicu?,Jučer je riđa mačka susjedu ukrala kobasicu.,gf,,,50,KOBASICU; KOBASICA,Što je ukrala mačka?,
,inter-stimulus,canvas.Screen,2_1_5,,,,,,response,4585.920000000013,176180,176181.42,176198.08,180784,180803,2024-06-18T07:28:24.338Z,180814.1,Dpgv3oGnIS,incremental,anketa,6645cf40bc81b65c5faccf1d,participant,hcpibd0dlxk2xq24,,,mousedown,,Tko je jučer susjedu ukrao kobasicu?,Jučer je riđa mačka susjedu ukrala kobasicu.,gf,,,50,KOBASICU; KOBASICA,Što je ukrala mačka?,
,Sequence,flow.Sequence,2_1,,,,,,completion,29682.459999999992,151084,151084.9,151101.54,180784,180805,2024-06-18T07:28:24.340Z,180814.1,Dpgv3oGnIS,incremental,anketa,6645cf40bc81b65c5faccf1d,participant,hcpibd0dlxk2xq24,,,,,Tko je jučer susjedu ukrao kobasicu?,Jučer je riđa mačka susjedu ukrala kobasicu.,gf,,,50,KOBASICU; KOBASICA,Što je ukrala mačka?,
,context,canvas.Screen,2_2_0_0,,,,,,response,3938.899999999994,180806,180798.88,180814.1,184753,184759,2024-06-18T07:28:28.295Z,184763.46,Dpgv3oGnIS,incremental,anketa,6645cf40bc81b65c5faccf1d,participant,hcpibd0dlxk2xq24,,,click,,Što želiš da pronaći nije bilo teško?,Pronaći apoteku nije bilo teško.,si,,,14,,,2305
,Timer frame,html.Frame,2_2_0,,,,,,,3945.899999999994,180806,180798.88,180814.1,184760,184760,2024-06-18T07:28:28.295Z,184763.46,Dpgv3oGnIS,incremental,anketa,6645cf40bc81b65c5faccf1d,participant,hcpibd0dlxk2xq24,,,,,Što želiš da pronaći nije bilo teško?,Pronaći apoteku nije bilo teško.,si,,,14,,,2305
,stimulus,canvas.Screen,2_2_1_0,,,,,,response,5286.540000000008,184761,184758.62,184763.46,190050,190067,2024-06-18T07:28:33.602Z,190079.4,Dpgv3oGnIS,incremental,anketa,6645cf40bc81b65c5faccf1d,participant,hcpibd0dlxk2xq24,,1,click @1,,Što želiš da pronaći nije bilo teško?,Pronaći apoteku nije bilo teško.,si,,,14,,,2305
,Timer frame,html.Frame,2_2_1,,,,,,,5303.540000000008,184760,184758.62,184763.46,190067,190067,2024-06-18T07:28:33.603Z,190079.4,Dpgv3oGnIS,incremental,anketa,6645cf40bc81b65c5faccf1d,participant,hcpibd0dlxk2xq24,,,,,Što želiš da pronaći nije bilo teško?,Pronaći apoteku nije bilo teško.,si,,,14,,,2305
,Spremanje,canvas.Screen,2_2_2,,,,,,skipped,,190068,,,190067,190068,2024-06-18T07:28:33.603Z,190079.4,Dpgv3oGnIS,incremental,anketa,6645cf40bc81b65c5faccf1d,participant,hcpibd0dlxk2xq24,,,,,Što želiš da pronaći nije bilo teško?,Pronaći apoteku nije bilo teško.,si,,,14,,,2305
,Question form,html.Form,2_2_3,,,,,,skipped,,190068,,,190067,190068,2024-06-18T07:28:33.603Z,190079.4,Dpgv3oGnIS,incremental,anketa,6645cf40bc81b65c5faccf1d,participant,hcpibd0dlxk2xq24,,,,,Što želiš da pronaći nije bilo teško?,Pronaći apoteku nije bilo teško.,si,,,14,,,2305
,Answer indication,canvas.Screen,2_2_4,,,,,,skipped,,190074,,,190067,190074,2024-06-18T07:28:33.609Z,190079.4,Dpgv3oGnIS,incremental,anketa,6645cf40bc81b65c5faccf1d,participant,hcpibd0dlxk2xq24,,,,,Što želiš da pronaći nije bilo teško?,Pronaći apoteku nije bilo teško.,si,,,14,,,2305
,inter-stimulus,canvas.Screen,2_2_5,,,,,,response,2251.600000000006,190074,190066.24,190079.4,192331,192345,2024-06-18T07:28:35.881Z,192362.76,Dpgv3oGnIS,incremental,anketa,6645cf40bc81b65c5faccf1d,participant,hcpibd0dlxk2xq24,,,mousedown,,Što želiš da pronaći nije bilo teško?,Pronaći apoteku nije bilo teško.,si,,,14,,,2305
,Sequence,flow.Sequence,2_2,,,,,,completion,11516.899999999994,180805,180798.88,180814.1,192331,192346,2024-06-18T07:28:35.882Z,192362.76,Dpgv3oGnIS,incremental,anketa,6645cf40bc81b65c5faccf1d,participant,hcpibd0dlxk2xq24,,,,,Što želiš da pronaći nije bilo teško?,Pronaći apoteku nije bilo teško.,si,,,14,,,2305
,context,canvas.Screen,2_3_0_0,,,,,,response,5640.239999999991,192347,192346.1,192362.76,198003,198020,2024-06-18T07:28:41.555Z,198028.28,Dpgv3oGnIS,incremental,anketa,6645cf40bc81b65c5faccf1d,participant,hcpibd0dlxk2xq24,,,click,,"Oni su se svađali navečer, ali ujutro su sve pritužbe već bile zaboravljene..","Navečer su se svađali, ali ujutro su sve pritužbe već bile zaboravljene..",gf,44,40,48,,,
,Timer frame,html.Frame,2_3_0,,,,,,,5657.239999999991,192347,192346.1,192362.76,198020,198020,2024-06-18T07:28:41.555Z,198028.28,Dpgv3oGnIS,incremental,anketa,6645cf40bc81b65c5faccf1d,participant,hcpibd0dlxk2xq24,,,,,"Oni su se svađali navečer, ali ujutro su sve pritužbe već bile zaboravljene..","Navečer su se svađali, ali ujutro su sve pritužbe već bile zaboravljene..",gf,44,40,48,,,
,stimulus,canvas.Screen,2_3_1_0,,,,,,response,5880.720000000001,198021,198018.64,198028.28,203909,203919,2024-06-18T07:28:47.455Z,203927.38,Dpgv3oGnIS,incremental,anketa,6645cf40bc81b65c5faccf1d,participant,hcpibd0dlxk2xq24,,7,click @7,,"Oni su se svađali navečer, ali ujutro su sve pritužbe već bile zaboravljene..","Navečer su se svađali, ali ujutro su sve pritužbe već bile zaboravljene..",gf,44,40,48,,,
,Timer frame,html.Frame,2_3_1,,,,,,,5890.720000000001,198020,198018.64,198028.28,203919,203919,2024-06-18T07:28:47.455Z,203927.38,Dpgv3oGnIS,incremental,anketa,6645cf40bc81b65c5faccf1d,participant,hcpibd0dlxk2xq24,,,,,"Oni su se svađali navečer, ali ujutro su sve pritužbe već bile zaboravljene..","Navečer su se svađali, ali ujutro su sve pritužbe već bile zaboravljene..",gf,44,40,48,,,
,Spremanje,canvas.Screen,2_3_2,,,,,,skipped,,203919,,,203919,203920,2024-06-18T07:28:47.456Z,203927.38,Dpgv3oGnIS,incremental,anketa,6645cf40bc81b65c5faccf1d,participant,hcpibd0dlxk2xq24,,,,,"Oni su se svađali navečer, ali ujutro su sve pritužbe već bile zaboravljene..","Navečer su se svađali, ali ujutro su sve pritužbe već bile zaboravljene..",gf,44,40,48,,,
,Question form,html.Form,2_3_3,,,,,,skipped,,203920,,,203919,203920,2024-06-18T07:28:47.456Z,203927.38,Dpgv3oGnIS,incremental,anketa,6645cf40bc81b65c5faccf1d,participant,hcpibd0dlxk2xq24,,,,,"Oni su se svađali navečer, ali ujutro su sve pritužbe već bile zaboravljene..","Navečer su se svađali, ali ujutro su sve pritužbe već bile zaboravljene..",gf,44,40,48,,,
,Answer indication,canvas.Screen,2_3_4,,,,,,skipped,,203922,,,203919,203922,2024-06-18T07:28:47.457Z,203927.38,Dpgv3oGnIS,incremental,anketa,6645cf40bc81b65c5faccf1d,participant,hcpibd0dlxk2xq24,,,,,"Oni su se svađali navečer, ali ujutro su sve pritužbe već bile zaboravljene..","Navečer su se svađali, ali ujutro su sve pritužbe već bile zaboravljene..",gf,44,40,48,,,
,inter-stimulus,canvas.Screen,2_3_5,,,,,,response,1544.6199999999953,203923,203918.2,203927.38,205472,205476,2024-06-18T07:28:49.011Z,205494.02,Dpgv3oGnIS,incremental,anketa,6645cf40bc81b65c5faccf1d,participant,hcpibd0dlxk2xq24,,,mousedown,,"Oni su se svađali navečer, ali ujutro su sve pritužbe već bile zaboravljene..","Navečer su se svađali, ali ujutro su sve pritužbe već bile zaboravljene..",gf,44,40,48,,,
,Sequence,flow.Sequence,2_3,,,,,,completion,13109.23999999999,192347,192346.1,192362.76,205472,205476,2024-06-18T07:28:49.012Z,205494.02,Dpgv3oGnIS,incremental,anketa,6645cf40bc81b65c5faccf1d,participant,hcpibd0dlxk2xq24,,,,,"Oni su se svađali navečer, ali ujutro su sve pritužbe već bile zaboravljene..","Navečer su se svađali, ali ujutro su sve pritužbe već bile zaboravljene..",gf,44,40,48,,,
,context,canvas.Screen,2_4_0_0,,,,,,response,4055.9800000000105,205477,205477.36,205494.02,209550,209564,2024-06-18T07:28:53.100Z,209576.58,Dpgv3oGnIS,incremental,anketa,6645cf40bc81b65c5faccf1d,participant,hcpibd0dlxk2xq24,,,click,,Što je Inna tri sata pročitala?,Inna je tri sata čitala zanimljiv članak.,nf,,,39,,,
,Timer frame,html.Frame,2_4_0,,,,,,,4069.9800000000105,205476,205477.36,205494.02,209564,209564,2024-06-18T07:28:53.100Z,209576.58,Dpgv3oGnIS,incremental,anketa,6645cf40bc81b65c5faccf1d,participant,hcpibd0dlxk2xq24,,,,,Što je Inna tri sata pročitala?,Inna je tri sata čitala zanimljiv članak.,nf,,,39,,,
,stimulus,canvas.Screen,2_4_1_0,,,,,,response,3739.420000000013,209565,209563.08,209576.58,213316,213331,2024-06-18T07:28:56.867Z,213342.68,Dpgv3oGnIS,incremental,anketa,6645cf40bc81b65c5faccf1d,participant,hcpibd0dlxk2xq24,,1,click @1,,Što je Inna tri sata pročitala?,Inna je tri sata čitala zanimljiv članak.,nf,,,39,,,
,Timer frame,html.Frame,2_4_1,,,,,,,3754.420000000013,209565,209563.08,209576.58,213331,213333,2024-06-18T07:28:56.867Z,213342.68,Dpgv3oGnIS,incremental,anketa,6645cf40bc81b65c5faccf1d,participant,hcpibd0dlxk2xq24,,,,,Što je Inna tri sata pročitala?,Inna je tri sata čitala zanimljiv članak.,nf,,,39,,,
,Spremanje,canvas.Screen,2_4_2,,,,,,skipped,,213333,,,213331,213333,2024-06-18T07:28:56.867Z,213342.68,Dpgv3oGnIS,incremental,anketa,6645cf40bc81b65c5faccf1d,participant,hcpibd0dlxk2xq24,,,,,Što je Inna tri sata pročitala?,Inna je tri sata čitala zanimljiv članak.,nf,,,39,,,
,Question form,html.Form,2_4_3,,,,,,skipped,,213333,,,213331,213333,2024-06-18T07:28:56.868Z,213342.68,Dpgv3oGnIS,incremental,anketa,6645cf40bc81b65c5faccf1d,participant,hcpibd0dlxk2xq24,,,,,Što je Inna tri sata pročitala?,Inna je tri sata čitala zanimljiv članak.,nf,,,39,,,
,Answer indication,canvas.Screen,2_4_4,,,,,,skipped,,213335,,,213331,213335,2024-06-18T07:28:56.871Z,213342.68,Dpgv3oGnIS,incremental,anketa,6645cf40bc81b65c5faccf1d,participant,hcpibd0dlxk2xq24,,,,,Što je Inna tri sata pročitala?,Inna je tri sata čitala zanimljiv članak.,nf,,,39,,,
,inter-stimulus,canvas.Screen,2_4_5,,,,,,response,1768.320000000007,213335,213330.54,213342.68,215111,215130,2024-06-18T07:28:58.666Z,215142.64,Dpgv3oGnIS,incremental,anketa,6645cf40bc81b65c5faccf1d,participant,hcpibd0dlxk2xq24,,,mousedown,,Što je Inna tri sata pročitala?,Inna je tri sata čitala zanimljiv članak.,nf,,,39,,,
,Sequence,flow.Sequence,2_4,,,,,,completion,9616.98000000001,205476,205477.36,205494.02,215111,215131,2024-06-18T07:28:58.667Z,215142.64,Dpgv3oGnIS,incremental,anketa,6645cf40bc81b65c5faccf1d,participant,hcpibd0dlxk2xq24,,,,,Što je Inna tri sata pročitala?,Inna je tri sata čitala zanimljiv članak.,nf,,,39,,,
,context,canvas.Screen,2_5_0_0,,,,,,response,4985.359999999986,215132,215128.76,215142.64,220128,220148,2024-06-18T07:29:03.684Z,220158.46,Dpgv3oGnIS,incremental,anketa,6645cf40bc81b65c5faccf1d,participant,hcpibd0dlxk2xq24,,,click,,Za koliko novca nevjerojatno je da je Goran prodao svoj stan??,Ono da je Goran prodao svoj stan za toliki novac nevjerojatno je..,si,31,32,18,,,
,Timer frame,html.Frame,2_5_0,,,,,,,5006.359999999986,215132,215128.76,215142.64,220149,220150,2024-06-18T07:29:03.685Z,220158.46,Dpgv3oGnIS,incremental,anketa,6645cf40bc81b65c5faccf1d,participant,hcpibd0dlxk2xq24,,,,,Za koliko novca nevjerojatno je da je Goran prodao svoj stan??,Ono da je Goran prodao svoj stan za toliki novac nevjerojatno je..,si,31,32,18,,,
,stimulus,canvas.Screen,2_5_1_0,,,,,,response,7735.540000000008,220151,220146.32,220158.46,227894,227910,2024-06-18T07:29:11.445Z,227924.06,Dpgv3oGnIS,incremental,anketa,6645cf40bc81b65c5faccf1d,participant,hcpibd0dlxk2xq24,,1,click @1,,Za koliko novca nevjerojatno je da je Goran prodao svoj stan??,Ono da je Goran prodao svoj stan za toliki novac nevjerojatno je..,si,31,32,18,,,
,Timer frame,html.Frame,2_5_1,,,,,,,7751.540000000008,220150,220146.32,220158.46,227910,227911,2024-06-18T07:29:11.446Z,227924.06,Dpgv3oGnIS,incremental,anketa,6645cf40bc81b65c5faccf1d,participant,hcpibd0dlxk2xq24,,,,,Za koliko novca nevjerojatno je da je Goran prodao svoj stan??,Ono da je Goran prodao svoj stan za toliki novac nevjerojatno je..,si,31,32,18,,,
,Spremanje,canvas.Screen,2_5_2,,,,,,skipped,,227911,,,227910,227912,2024-06-18T07:29:11.447Z,227924.06,Dpgv3oGnIS,incremental,anketa,6645cf40bc81b65c5faccf1d,participant,hcpibd0dlxk2xq24,,,,,Za koliko novca nevjerojatno je da je Goran prodao svoj stan??,Ono da je Goran prodao svoj stan za toliki novac nevjerojatno je..,si,31,32,18,,,
,Question form,html.Form,2_5_3,,,,,,skipped,,227912,,,227910,227912,2024-06-18T07:29:11.447Z,227924.06,Dpgv3oGnIS,incremental,anketa,6645cf40bc81b65c5faccf1d,participant,hcpibd0dlxk2xq24,,,,,Za koliko novca nevjerojatno je da je Goran prodao svoj stan??,Ono da je Goran prodao svoj stan za toliki novac nevjerojatno je..,si,31,32,18,,,
,Answer indication,canvas.Screen,2_5_4,,,,,,skipped,,227918,,,227910,227918,2024-06-18T07:29:11.454Z,227924.06,Dpgv3oGnIS,incremental,anketa,6645cf40bc81b65c5faccf1d,participant,hcpibd0dlxk2xq24,,,,,Za koliko novca nevjerojatno je da je Goran prodao svoj stan??,Ono da je Goran prodao svoj stan za toliki novac nevjerojatno je..,si,31,32,18,,,
,inter-stimulus,canvas.Screen,2_5_5,,,,,,response,1734.9400000000023,227919,227907.4,227924.06,229659,229672,2024-06-18T07:29:13.208Z,229690.6,Dpgv3oGnIS,incremental,anketa,6645cf40bc81b65c5faccf1d,participant,hcpibd0dlxk2xq24,,,mousedown,,Za koliko novca nevjerojatno je da je Goran prodao svoj stan??,Ono da je Goran prodao svoj stan za toliki novac nevjerojatno je..,si,31,32,18,,,
,Sequence,flow.Sequence,2_5,,,,,,completion,14516.359999999986,215132,215128.76,215142.64,229659,229672,2024-06-18T07:29:13.208Z,229690.6,Dpgv3oGnIS,incremental,anketa,6645cf40bc81b65c5faccf1d,participant,hcpibd0dlxk2xq24,,,,,Za koliko novca nevjerojatno je da je Goran prodao svoj stan??,Ono da je Goran prodao svoj stan za toliki novac nevjerojatno je..,si,31,32,18,,,
,context,canvas.Screen,2_6_0_0,,,,,,response,2593.399999999994,229674,229673.94,229690.6,232284,232300,2024-06-18T07:29:15.836Z,232306.82,Dpgv3oGnIS,incremental,anketa,6645cf40bc81b65c5faccf1d,participant,hcpibd0dlxk2xq24,,,click,,"Kamo je djevojka razmišljala o slobode, idući?","Djevojka je razmišljala o slobode, idući do mora.",ai,,,23,,,
,Timer frame,html.Frame,2_6_0,,,,,,,2610.399999999994,229674,229673.94,229690.6,232301,232301,2024-06-18T07:29:15.837Z,232306.82,Dpgv3oGnIS,incremental,anketa,6645cf40bc81b65c5faccf1d,participant,hcpibd0dlxk2xq24,,,,,"Kamo je djevojka razmišljala o slobode, idući?","Djevojka je razmišljala o slobode, idući do mora.",ai,,,23,,,
,stimulus,canvas.Screen,2_6_1_0,,,,,,response,3430.179999999993,232302,232298.76,232306.82,235737,235756,2024-06-18T07:29:19.292Z,235756.34,Dpgv3oGnIS,incremental,anketa,6645cf40bc81b65c5faccf1d,participant,hcpibd0dlxk2xq24,,1,click @1,,"Kamo je djevojka razmišljala o slobode, idući?","Djevojka je razmišljala o slobode, idući do mora.",ai,,,23,,,
,Timer frame,html.Frame,2_6_1,,,,,,,3449.179999999993,232301,232298.76,232306.82,235756,235757,2024-06-18T07:29:19.293Z,235756.34,Dpgv3oGnIS,incremental,anketa,6645cf40bc81b65c5faccf1d,participant,hcpibd0dlxk2xq24,,,,,"Kamo je djevojka razmišljala o slobode, idući?","Djevojka je razmišljala o slobode, idući do mora.",ai,,,23,,,
,Spremanje,canvas.Screen,2_6_2,,,,,,skipped,,235757,,,235756,235757,2024-06-18T07:29:19.293Z,235756.34,Dpgv3oGnIS,incremental,anketa,6645cf40bc81b65c5faccf1d,participant,hcpibd0dlxk2xq24,,,,,"Kamo je djevojka razmišljala o slobode, idući?","Djevojka je razmišljala o slobode, idući do mora.",ai,,,23,,,
,Question form,html.Form,2_6_3,,,,,,skipped,,235758,,,235756,235758,2024-06-18T07:29:19.293Z,235756.34,Dpgv3oGnIS,incremental,anketa,6645cf40bc81b65c5faccf1d,participant,hcpibd0dlxk2xq24,,,,,"Kamo je djevojka razmišljala o slobode, idući?","Djevojka je razmišljala o slobode, idući do mora.",ai,,,23,,,
,Answer indication,canvas.Screen,2_6_4,,,,,,skipped,,235759,,,235756,235760,2024-06-18T07:29:19.295Z,235756.34,Dpgv3oGnIS,incremental,anketa,6645cf40bc81b65c5faccf1d,participant,hcpibd0dlxk2xq24,,,,,"Kamo je djevojka razmišljala o slobode, idući?","Djevojka je razmišljala o slobode, idući do mora.",ai,,,23,,,
,inter-stimulus,canvas.Screen,2_6_5,,,,,,response,2105.6600000000035,235760,235754.5,235756.34,237862,237885,2024-06-18T07:29:21.420Z,237889.5,Dpgv3oGnIS,incremental,anketa,6645cf40bc81b65c5faccf1d,participant,hcpibd0dlxk2xq24,,,mousedown,,"Kamo je djevojka razmišljala o slobode, idući?","Djevojka je razmišljala o slobode, idući do mora.",ai,,,23,,,
,Sequence,flow.Sequence,2_6,,,,,,completion,8171.399999999994,229673,229673.94,229690.6,237862,237885,2024-06-18T07:29:21.420Z,237889.5,Dpgv3oGnIS,incremental,anketa,6645cf40bc81b65c5faccf1d,participant,hcpibd0dlxk2xq24,,,,,"Kamo je djevojka razmišljala o slobode, idući?","Djevojka je razmišljala o slobode, idući do mora.",ai,,,23,,,
,context,canvas.Screen,2_7_0_0,,,,,,response,3988.5,237886,237883.64,237889.5,241878,241899,2024-06-18T07:29:25.435Z,241905.5,Dpgv3oGnIS,incremental,anketa,6645cf40bc81b65c5faccf1d,participant,hcpibd0dlxk2xq24,,,click,,Kolike su trenutno plaće u hrvatskom sportu?,Kolike plaće su trenutno u hrvatskom sportu?,lbc,,,35,,,
,Timer frame,html.Frame,2_7_0,,,,,,,4010.5,237886,237883.64,237889.5,241900,241900,2024-06-18T07:29:25.436Z,241905.5,Dpgv3oGnIS,incremental,anketa,6645cf40bc81b65c5faccf1d,participant,hcpibd0dlxk2xq24,,,,,Kolike su trenutno plaće u hrvatskom sportu?,Kolike plaće su trenutno u hrvatskom sportu?,lbc,,,35,,,
,stimulus,canvas.Screen,2_7_1_0,,,,,,response,3847.5,241900,241898.5,241905.5,245753,245764,2024-06-18T07:29:29.299Z,245771.56,Dpgv3oGnIS,incremental,anketa,6645cf40bc81b65c5faccf1d,participant,hcpibd0dlxk2xq24,,7,click @7,,Kolike su trenutno plaće u hrvatskom sportu?,Kolike plaće su trenutno u hrvatskom sportu?,lbc,,,35,,,
,Timer frame,html.Frame,2_7_1,,,,,,,3858.5,241900,241898.5,241905.5,245764,245764,2024-06-18T07:29:29.299Z,245771.56,Dpgv3oGnIS,incremental,anketa,6645cf40bc81b65c5faccf1d,participant,hcpibd0dlxk2xq24,,,,,Kolike su trenutno plaće u hrvatskom sportu?,Kolike plaće su trenutno u hrvatskom sportu?,lbc,,,35,,,
,Spremanje,canvas.Screen,2_7_2,,,,,,skipped,,245765,,,245764,245765,2024-06-18T07:29:29.300Z,245771.56,Dpgv3oGnIS,incremental,anketa,6645cf40bc81b65c5faccf1d,participant,hcpibd0dlxk2xq24,,,,,Kolike su trenutno plaće u hrvatskom sportu?,Kolike plaće su trenutno u hrvatskom sportu?,lbc,,,35,,,
,Question form,html.Form,2_7_3,,,,,,skipped,,245765,,,245764,245765,2024-06-18T07:29:29.300Z,245771.56,Dpgv3oGnIS,incremental,anketa,6645cf40bc81b65c5faccf1d,participant,hcpibd0dlxk2xq24,,,,,Kolike su trenutno plaće u hrvatskom sportu?,Kolike plaće su trenutno u hrvatskom sportu?,lbc,,,35,,,
,Answer indication,canvas.Screen,2_7_4,,,,,,skipped,,245768,,,245764,245768,2024-06-18T07:29:29.304Z,245771.56,Dpgv3oGnIS,incremental,anketa,6645cf40bc81b65c5faccf1d,participant,hcpibd0dlxk2xq24,,,,,Kolike su trenutno plaće u hrvatskom sportu?,Kolike plaće su trenutno u hrvatskom sportu?,lbc,,,35,,,
,inter-stimulus,canvas.Screen,2_7_5,,,,,,response,1919.4400000000023,245768,245762.92,245771.56,247691,247695,2024-06-18T07:29:31.232Z,247704.8,Dpgv3oGnIS,incremental,anketa,6645cf40bc81b65c5faccf1d,participant,hcpibd0dlxk2xq24,,,mousedown,,Kolike su trenutno plaće u hrvatskom sportu?,Kolike plaće su trenutno u hrvatskom sportu?,lbc,,,35,,,
,Sequence,flow.Sequence,2_7,,,,,,completion,9801.5,237885,237883.64,237889.5,247691,247696,2024-06-18T07:29:31.232Z,247704.8,Dpgv3oGnIS,incremental,anketa,6645cf40bc81b65c5faccf1d,participant,hcpibd0dlxk2xq24,,,,,Kolike su trenutno plaće u hrvatskom sportu?,Kolike plaće su trenutno u hrvatskom sportu?,lbc,,,35,,,
,context,canvas.Screen,2_8_0_0,,,,,,response,3407.2000000000116,247696,247695.02,247704.8,251112,251127,2024-06-18T07:29:34.664Z,251137.48,Dpgv3oGnIS,incremental,anketa,6645cf40bc81b65c5faccf1d,participant,hcpibd0dlxk2xq24,,,click,,Čega je vidio muzej i obalu?,On je vidio muzej i obalu rijeke.,csi,0,0,1,,,2305
,Timer frame,html.Frame,2_8_0,,,,,,,3423.2000000000116,247696,247695.02,247704.8,251128,251128,2024-06-18T07:29:34.664Z,251137.48,Dpgv3oGnIS,incremental,anketa,6645cf40bc81b65c5faccf1d,participant,hcpibd0dlxk2xq24,,,,,Čega je vidio muzej i obalu?,On je vidio muzej i obalu rijeke.,csi,0,0,1,,,2305
,stimulus,canvas.Screen,2_8_1_0,,,,,,response,3678.5199999999895,251128,251126.96,251137.48,254816,254832,2024-06-18T07:29:38.367Z,254853.68,Dpgv3oGnIS,incremental,anketa,6645cf40bc81b65c5faccf1d,participant,hcpibd0dlxk2xq24,,1,click @1,,Čega je vidio muzej i obalu?,On je vidio muzej i obalu rijeke.,csi,0,0,1,,,2305
,Timer frame,html.Frame,2_8_1,,,,,,,3694.5199999999895,251128,251126.96,251137.48,254832,254832,2024-06-18T07:29:38.367Z,254853.68,Dpgv3oGnIS,incremental,anketa,6645cf40bc81b65c5faccf1d,participant,hcpibd0dlxk2xq24,,,,,Čega je vidio muzej i obalu?,On je vidio muzej i obalu rijeke.,csi,0,0,1,,,2305
,Spremanje,canvas.Screen,2_8_2,,,,,,skipped,,254832,,,254832,254832,2024-06-18T07:29:38.368Z,254853.68,Dpgv3oGnIS,incremental,anketa,6645cf40bc81b65c5faccf1d,participant,hcpibd0dlxk2xq24,,,,,Čega je vidio muzej i obalu?,On je vidio muzej i obalu rijeke.,csi,0,0,1,,,2305
,Question form,html.Form,2_8_3,,,,,,skipped,,254832,,,254832,254832,2024-06-18T07:29:38.368Z,254853.68,Dpgv3oGnIS,incremental,anketa,6645cf40bc81b65c5faccf1d,participant,hcpibd0dlxk2xq24,,,,,Čega je vidio muzej i obalu?,On je vidio muzej i obalu rijeke.,csi,0,0,1,,,2305
,Answer indication,canvas.Screen,2_8_4,,,,,,skipped,,254834,,,254832,254834,2024-06-18T07:29:38.369Z,254853.68,Dpgv3oGnIS,incremental,anketa,6645cf40bc81b65c5faccf1d,participant,hcpibd0dlxk2xq24,,,,,Čega je vidio muzej i obalu?,On je vidio muzej i obalu rijeke.,csi,0,0,1,,,2305
,inter-stimulus,canvas.Screen,2_8_5,,,,,,response,1555.320000000007,254834,254837.02,254853.68,256409,256425,2024-06-18T07:29:39.960Z,256437.14,Dpgv3oGnIS,incremental,anketa,6645cf40bc81b65c5faccf1d,participant,hcpibd0dlxk2xq24,,,mousedown,,Čega je vidio muzej i obalu?,On je vidio muzej i obalu rijeke.,csi,0,0,1,,,2305
,Sequence,flow.Sequence,2_8,,,,,,completion,8704.200000000012,247696,247695.02,247704.8,256409,256426,2024-06-18T07:29:39.961Z,256437.14,Dpgv3oGnIS,incremental,anketa,6645cf40bc81b65c5faccf1d,participant,hcpibd0dlxk2xq24,,,,,Čega je vidio muzej i obalu?,On je vidio muzej i obalu rijeke.,csi,0,0,1,,,2305
,context,canvas.Screen,2_9_0_0,,,,,,response,6253.859999999986,256426,256424,256437.14,262691,262703,2024-06-18T07:29:46.239Z,262702.52,Dpgv3oGnIS,incremental,anketa,6645cf40bc81b65c5faccf1d,participant,hcpibd0dlxk2xq24,,,click,,"Kamo da ne odeš gladan, doručkovao si?",Doručkovao si da ne odeš gladan u planine.,ai,,,21,,,
,Timer frame,html.Frame,2_9_0,,,,,,,6265.859999999986,256426,256424,256437.14,262703,262703,2024-06-18T07:29:46.239Z,262702.52,Dpgv3oGnIS,incremental,anketa,6645cf40bc81b65c5faccf1d,participant,hcpibd0dlxk2xq24,,,,,"Kamo da ne odeš gladan, doručkovao si?",Doručkovao si da ne odeš gladan u planine.,ai,,,21,,,
,stimulus,canvas.Screen,2_9_1_0,,,,,,response,3284.4799999999814,262704,262702.24,262702.52,265987,265992,2024-06-18T07:29:49.527Z,266002.02,Dpgv3oGnIS,incremental,anketa,6645cf40bc81b65c5faccf1d,participant,hcpibd0dlxk2xq24,,1,click @1,,"Kamo da ne odeš gladan, doručkovao si?",Doručkovao si da ne odeš gladan u planine.,ai,,,21,,,
,Timer frame,html.Frame,2_9_1,,,,,,,3290.4799999999814,262704,262702.24,262702.52,265993,265993,2024-06-18T07:29:49.528Z,266002.02,Dpgv3oGnIS,incremental,anketa,6645cf40bc81b65c5faccf1d,participant,hcpibd0dlxk2xq24,,,,,"Kamo da ne odeš gladan, doručkovao si?",Doručkovao si da ne odeš gladan u planine.,ai,,,21,,,
,Spremanje,canvas.Screen,2_9_2,,,,,,skipped,,265993,,,265993,265993,2024-06-18T07:29:49.528Z,266002.02,Dpgv3oGnIS,incremental,anketa,6645cf40bc81b65c5faccf1d,participant,hcpibd0dlxk2xq24,,,,,"Kamo da ne odeš gladan, doručkovao si?",Doručkovao si da ne odeš gladan u planine.,ai,,,21,,,
,Question form,html.Form,2_9_3,,,,,,skipped,,265993,,,265993,265993,2024-06-18T07:29:49.528Z,266002.02,Dpgv3oGnIS,incremental,anketa,6645cf40bc81b65c5faccf1d,participant,hcpibd0dlxk2xq24,,,,,"Kamo da ne odeš gladan, doručkovao si?",Doručkovao si da ne odeš gladan u planine.,ai,,,21,,,
,Answer indication,canvas.Screen,2_9_4,,,,,,skipped,,265995,,,265993,265995,2024-06-18T07:29:49.531Z,266002.02,Dpgv3oGnIS,incremental,anketa,6645cf40bc81b65c5faccf1d,participant,hcpibd0dlxk2xq24,,,,,"Kamo da ne odeš gladan, doručkovao si?",Doručkovao si da ne odeš gladan u planine.,ai,,,21,,,
,inter-stimulus,canvas.Screen,2_9_5,,,,,,response,1250.9799999999814,265996,265990.96,266002.02,267253,267265,2024-06-18T07:29:50.801Z,267285.38,Dpgv3oGnIS,incremental,anketa,6645cf40bc81b65c5faccf1d,participant,hcpibd0dlxk2xq24,,,mousedown,,"Kamo da ne odeš gladan, doručkovao si?",Doručkovao si da ne odeš gladan u planine.,ai,,,21,,,
,Sequence,flow.Sequence,2_9,,,,,,completion,10815.859999999986,256426,256424,256437.14,267253,267265,2024-06-18T07:29:50.801Z,267285.38,Dpgv3oGnIS,incremental,anketa,6645cf40bc81b65c5faccf1d,participant,hcpibd0dlxk2xq24,,,,,"Kamo da ne odeš gladan, doručkovao si?",Doručkovao si da ne odeš gladan u planine.,ai,,,21,,,
,context,canvas.Screen,2_10_0_0,,,,,,response,3436.6199999999953,267266,267268.72,267285.38,270722,270745,2024-06-18T07:29:54.281Z,270751.42,Dpgv3oGnIS,incremental,anketa,6645cf40bc81b65c5faccf1d,participant,hcpibd0dlxk2xq24,,,click,,Stare su samo Čehovljeve priče bile u ovoj knjižnici..,Samo su Čehovljeve priče bile stare u ovoj knjižnici..,di,35,35,33,,,
,Timer frame,html.Frame,2_10_0,,,,,,,3459.6199999999953,267266,267268.72,267285.38,270745,270746,2024-06-18T07:29:54.282Z,270751.42,Dpgv3oGnIS,incremental,anketa,6645cf40bc81b65c5faccf1d,participant,hcpibd0dlxk2xq24,,,,,Stare su samo Čehovljeve priče bile u ovoj knjižnici..,Samo su Čehovljeve priče bile stare u ovoj knjižnici..,di,35,35,33,,,
,stimulus,canvas.Screen,2_10_1_0,,,,,,response,4689.580000000016,270747,270743.02,270751.42,275441,275456,2024-06-18T07:29:58.991Z,275467.38,Dpgv3oGnIS,incremental,anketa,6645cf40bc81b65c5faccf1d,participant,hcpibd0dlxk2xq24,,1,click @1,,Stare su samo Čehovljeve priče bile u ovoj knjižnici..,Samo su Čehovljeve priče bile stare u ovoj knjižnici..,di,35,35,33,,,
,Timer frame,html.Frame,2_10_1,,,,,,,4705.580000000016,270746,270743.02,270751.42,275457,275457,2024-06-18T07:29:58.992Z,275467.38,Dpgv3oGnIS,incremental,anketa,6645cf40bc81b65c5faccf1d,participant,hcpibd0dlxk2xq24,,,,,Stare su samo Čehovljeve priče bile u ovoj knjižnici..,Samo su Čehovljeve priče bile stare u ovoj knjižnici..,di,35,35,33,,,
,Spremanje,canvas.Screen,2_10_2,,,,,,skipped,,275458,,,275457,275458,2024-06-18T07:29:58.993Z,275467.38,Dpgv3oGnIS,incremental,anketa,6645cf40bc81b65c5faccf1d,participant,hcpibd0dlxk2xq24,,,,,Stare su samo Čehovljeve priče bile u ovoj knjižnici..,Samo su Čehovljeve priče bile stare u ovoj knjižnici..,di,35,35,33,,,
,Question form,html.Form,2_10_3,,,,,,skipped,,275458,,,275457,275458,2024-06-18T07:29:58.994Z,275467.38,Dpgv3oGnIS,incremental,anketa,6645cf40bc81b65c5faccf1d,participant,hcpibd0dlxk2xq24,,,,,Stare su samo Čehovljeve priče bile u ovoj knjižnici..,Samo su Čehovljeve priče bile stare u ovoj knjižnici..,di,35,35,33,,,
,Answer indication,canvas.Screen,2_10_4,,,,,,skipped,,275464,,,275457,275464,2024-06-18T07:29:59.000Z,275467.38,Dpgv3oGnIS,incremental,anketa,6645cf40bc81b65c5faccf1d,participant,hcpibd0dlxk2xq24,,,,,Stare su samo Čehovljeve priče bile u ovoj knjižnici..,Samo su Čehovljeve priče bile stare u ovoj knjižnici..,di,35,35,33,,,
,inter-stimulus,canvas.Screen,2_10_5,,,,,,response,1410.6199999999953,275465,275454.64,275467.38,276878,276889,2024-06-18T07:30:00.425Z,276900.74,Dpgv3oGnIS,incremental,anketa,6645cf40bc81b65c5faccf1d,participant,hcpibd0dlxk2xq24,,,mousedown,,Stare su samo Čehovljeve priče bile u ovoj knjižnici..,Samo su Čehovljeve priče bile stare u ovoj knjižnici..,di,35,35,33,,,
,Sequence,flow.Sequence,2_10,,,,,,completion,9592.619999999995,267266,267268.72,267285.38,276878,276889,2024-06-18T07:30:00.425Z,276900.74,Dpgv3oGnIS,incremental,anketa,6645cf40bc81b65c5faccf1d,participant,hcpibd0dlxk2xq24,,,,,Stare su samo Čehovljeve priče bile u ovoj knjižnici..,Samo su Čehovljeve priče bile stare u ovoj knjižnici..,di,35,35,33,,,
,context,canvas.Screen,2_11_0_0,,,,,,response,1836.2600000000093,276890,276888.04,276900.74,278737,278748,2024-06-18T07:30:02.284Z,278750.26,Dpgv3oGnIS,incremental,anketa,6645cf40bc81b65c5faccf1d,participant,hcpibd0dlxk2xq24,,,click,,Čega si gledao prepričavanje?,Gledao si prepričavanje filma.,di,,,31,,,
,Timer frame,html.Frame,2_11_0,,,,,,,1848.2600000000093,276890,276888.04,276900.74,278749,278750,2024-06-18T07:30:02.285Z,278750.26,Dpgv3oGnIS,incremental,anketa,6645cf40bc81b65c5faccf1d,participant,hcpibd0dlxk2xq24,,,,,Čega si gledao prepričavanje?,Gledao si prepričavanje filma.,di,,,31,,,
,stimulus,canvas.Screen,2_11_1_0,,,,,,response,2346.7399999999907,278750,278746.88,278750.26,281097,281104,2024-06-18T07:30:04.639Z,281116.56,Dpgv3oGnIS,incremental,anketa,6645cf40bc81b65c5faccf1d,participant,hcpibd0dlxk2xq24,,1,click @1,,Čega si gledao prepričavanje?,Gledao si prepričavanje filma.,di,,,31,,,
,Timer frame,html.Frame,2_11_1,,,,,,,2353.7399999999907,278750,278746.88,278750.26,281104,281104,2024-06-18T07:30:04.639Z,281116.56,Dpgv3oGnIS,incremental,anketa,6645cf40bc81b65c5faccf1d,participant,hcpibd0dlxk2xq24,,,,,Čega si gledao prepričavanje?,Gledao si prepričavanje filma.,di,,,31,,,
,Spremanje,canvas.Screen,2_11_2,,,,,,skipped,,281104,,,281104,281104,2024-06-18T07:30:04.640Z,281116.56,Dpgv3oGnIS,incremental,anketa,6645cf40bc81b65c5faccf1d,participant,hcpibd0dlxk2xq24,,,,,Čega si gledao prepričavanje?,Gledao si prepričavanje filma.,di,,,31,,,
,Question form,html.Form,2_11_3,,,,,,skipped,,281104,,,281104,281104,2024-06-18T07:30:04.640Z,281116.56,Dpgv3oGnIS,incremental,anketa,6645cf40bc81b65c5faccf1d,participant,hcpibd0dlxk2xq24,,,,,Čega si gledao prepričavanje?,Gledao si prepričavanje filma.,di,,,31,,,
,Answer indication,canvas.Screen,2_11_4,,,,,,skipped,,281107,,,281104,281107,2024-06-18T07:30:04.643Z,281116.56,Dpgv3oGnIS,incremental,anketa,6645cf40bc81b65c5faccf1d,participant,hcpibd0dlxk2xq24,,,,,Čega si gledao prepričavanje?,Gledao si prepričavanje filma.,di,,,31,,,
,inter-stimulus,canvas.Screen,2_11_5,,,,,,response,2058.4400000000023,281107,281102.68,281116.56,283175,283196,2024-06-18T07:30:06.732Z,283200.08,Dpgv3oGnIS,incremental,anketa,6645cf40bc81b65c5faccf1d,participant,hcpibd0dlxk2xq24,,,mousedown,,Čega si gledao prepričavanje?,Gledao si prepričavanje filma.,di,,,31,,,
,Sequence,flow.Sequence,2_11,,,,,,completion,6274.260000000009,276890,276888.04,276900.74,283175,283197,2024-06-18T07:30:06.732Z,283200.08,Dpgv3oGnIS,incremental,anketa,6645cf40bc81b65c5faccf1d,participant,hcpibd0dlxk2xq24,,,,,Čega si gledao prepričavanje?,Gledao si prepričavanje filma.,di,,,31,,,
,context,canvas.Screen,2_12_0_0,,,,,,response,2286.9199999999837,283197,283195.38,283200.08,285487,285507,2024-06-18T07:30:09.042Z,285515.98,Dpgv3oGnIS,incremental,anketa,6645cf40bc81b65c5faccf1d,participant,hcpibd0dlxk2xq24,,,click,,U sutra ne samo svatko jedan može gledati.,Ne može svatko gledati u sutra.,nf,,,45,,,
,Timer frame,html.Frame,2_12_0,,,,,,,2306.9199999999837,283197,283195.38,283200.08,285507,285507,2024-06-18T07:30:09.042Z,285515.98,Dpgv3oGnIS,incremental,anketa,6645cf40bc81b65c5faccf1d,participant,hcpibd0dlxk2xq24,,,,,U sutra ne samo svatko jedan može gledati.,Ne može svatko gledati u sutra.,nf,,,45,,,
,stimulus,canvas.Screen,2_12_1_0,,,,,,response,3253.0200000000186,285507,285499.32,285515.98,288769,288777,2024-06-18T07:30:12.313Z,288782.3,Dpgv3oGnIS,incremental,anketa,6645cf40bc81b65c5faccf1d,participant,hcpibd0dlxk2xq24,,1,click @1,,U sutra ne samo svatko jedan može gledati.,Ne može svatko gledati u sutra.,nf,,,45,,,
,Timer frame,html.Frame,2_12_1,,,,,,,3261.0200000000186,285507,285499.32,285515.98,288777,288777,2024-06-18T07:30:12.313Z,288782.3,Dpgv3oGnIS,incremental,anketa,6645cf40bc81b65c5faccf1d,participant,hcpibd0dlxk2xq24,,,,,U sutra ne samo svatko jedan može gledati.,Ne može svatko gledati u sutra.,nf,,,45,,,
,Spremanje,canvas.Screen,2_12_2,,,,,,skipped,,288777,,,288777,288778,2024-06-18T07:30:12.314Z,288782.3,Dpgv3oGnIS,incremental,anketa,6645cf40bc81b65c5faccf1d,participant,hcpibd0dlxk2xq24,,,,,U sutra ne samo svatko jedan može gledati.,Ne može svatko gledati u sutra.,nf,,,45,,,
,Question form,html.Form,2_12_3,,,,,,skipped,,288778,,,288777,288778,2024-06-18T07:30:12.314Z,288782.3,Dpgv3oGnIS,incremental,anketa,6645cf40bc81b65c5faccf1d,participant,hcpibd0dlxk2xq24,,,,,U sutra ne samo svatko jedan može gledati.,Ne može svatko gledati u sutra.,nf,,,45,,,
,Answer indication,canvas.Screen,2_12_4,,,,,,skipped,,288781,,,288777,288781,2024-06-18T07:30:12.316Z,288782.3,Dpgv3oGnIS,incremental,anketa,6645cf40bc81b65c5faccf1d,participant,hcpibd0dlxk2xq24,,,,,U sutra ne samo svatko jedan može gledati.,Ne može svatko gledati u sutra.,nf,,,45,,,
,inter-stimulus,canvas.Screen,2_12_5,,,,,,response,1236.7000000000116,288781,288775.16,288782.3,290019,290032,2024-06-18T07:30:13.568Z,290048.72,Dpgv3oGnIS,incremental,anketa,6645cf40bc81b65c5faccf1d,participant,hcpibd0dlxk2xq24,,,mousedown,,U sutra ne samo svatko jedan može gledati.,Ne može svatko gledati u sutra.,nf,,,45,,,
,Sequence,flow.Sequence,2_12,,,,,,completion,6818.919999999984,283197,283195.38,283200.08,290019,290033,2024-06-18T07:30:13.568Z,290048.72,Dpgv3oGnIS,incremental,anketa,6645cf40bc81b65c5faccf1d,participant,hcpibd0dlxk2xq24,,,,,U sutra ne samo svatko jedan može gledati.,Ne može svatko gledati u sutra.,nf,,,45,,,
,context,canvas.Screen,2_13_0_0,,,,,,response,2782.280000000028,290033,290032.04,290048.72,292831,292840,2024-06-18T07:30:16.375Z,292848.36,Dpgv3oGnIS,incremental,anketa,6645cf40bc81b65c5faccf1d,participant,hcpibd0dlxk2xq24,,,click,,Za kim su banditi imali pitanja?,Ti banditi su imali pitanja za mene.,nf,,,40,,,
,Timer frame,html.Frame,2_13_0,,,,,,,2792.280000000028,290033,290032.04,290048.72,292841,292841,2024-06-18T07:30:16.375Z,292848.36,Dpgv3oGnIS,incremental,anketa,6645cf40bc81b65c5faccf1d,participant,hcpibd0dlxk2xq24,,,,,Za kim su banditi imali pitanja?,Ti banditi su imali pitanja za mene.,nf,,,40,,,
,stimulus,canvas.Screen,2_13_1_0,,,,,,response,2060.640000000014,292841,292831.68,292848.36,294909,294925,2024-06-18T07:30:18.460Z,294931.36,Dpgv3oGnIS,incremental,anketa,6645cf40bc81b65c5faccf1d,participant,hcpibd0dlxk2xq24,,1,click @1,,Za kim su banditi imali pitanja?,Ti banditi su imali pitanja za mene.,nf,,,40,,,
,Timer frame,html.Frame,2_13_1,,,,,,,2076.640000000014,292841,292831.68,292848.36,294925,294925,2024-06-18T07:30:18.461Z,294931.36,Dpgv3oGnIS,incremental,anketa,6645cf40bc81b65c5faccf1d,participant,hcpibd0dlxk2xq24,,,,,Za kim su banditi imali pitanja?,Ti banditi su imali pitanja za mene.,nf,,,40,,,
,Spremanje,canvas.Screen,2_13_2,,,,,,skipped,,294925,,,294925,294925,2024-06-18T07:30:18.461Z,294931.36,Dpgv3oGnIS,incremental,anketa,6645cf40bc81b65c5faccf1d,participant,hcpibd0dlxk2xq24,,,,,Za kim su banditi imali pitanja?,Ti banditi su imali pitanja za mene.,nf,,,40,,,
,Question form,html.Form,2_13_3,,,,,,skipped,,294925,,,294925,294925,2024-06-18T07:30:18.461Z,294931.36,Dpgv3oGnIS,incremental,anketa,6645cf40bc81b65c5faccf1d,participant,hcpibd0dlxk2xq24,,,,,Za kim su banditi imali pitanja?,Ti banditi su imali pitanja za mene.,nf,,,40,,,
,Answer indication,canvas.Screen,2_13_4,,,,,,skipped,,294927,,,294925,294928,2024-06-18T07:30:18.463Z,294931.36,Dpgv3oGnIS,incremental,anketa,6645cf40bc81b65c5faccf1d,participant,hcpibd0dlxk2xq24,,,,,Za kim su banditi imali pitanja?,Ti banditi su imali pitanja za mene.,nf,,,40,,,
,inter-stimulus,canvas.Screen,2_13_5,,,,,,response,2258.640000000014,294928,294923.02,294931.36,297190,297200,2024-06-18T07:30:20.736Z,297214.48,Dpgv3oGnIS,incremental,anketa,6645cf40bc81b65c5faccf1d,participant,hcpibd0dlxk2xq24,,,mousedown,,Za kim su banditi imali pitanja?,Ti banditi su imali pitanja za mene.,nf,,,40,,,
,Sequence,flow.Sequence,2_13,,,,,,completion,7141.280000000028,290033,290032.04,290048.72,297190,297201,2024-06-18T07:30:20.736Z,297214.48,Dpgv3oGnIS,incremental,anketa,6645cf40bc81b65c5faccf1d,participant,hcpibd0dlxk2xq24,,,,,Za kim su banditi imali pitanja?,Ti banditi su imali pitanja za mene.,nf,,,40,,,
,context,canvas.Screen,2_14_0_0,,,,,,response,3741.5200000000186,297201,297199.24,297214.48,300956,300967,2024-06-18T07:30:24.503Z,300980.48,Dpgv3oGnIS,incremental,anketa,6645cf40bc81b65c5faccf1d,participant,hcpibd0dlxk2xq24,,,click,,Vidimo plažu od koje smo bili daleko.,Vidimo plažu od koje smo bili daleko.,ai,,,25,,,
,Timer frame,html.Frame,2_14_0,,,,,,,3752.5200000000186,297201,297199.24,297214.48,300967,300968,2024-06-18T07:30:24.503Z,300980.48,Dpgv3oGnIS,incremental,anketa,6645cf40bc81b65c5faccf1d,participant,hcpibd0dlxk2xq24,,,,,Vidimo plažu od koje smo bili daleko.,Vidimo plažu od koje smo bili daleko.,ai,,,25,,,
,stimulus,canvas.Screen,2_14_1_0,,,,,,response,3428.5200000000186,300968,300966.8,300980.48,304409,304424,2024-06-18T07:30:27.959Z,304429.96,Dpgv3oGnIS,incremental,anketa,6645cf40bc81b65c5faccf1d,participant,hcpibd0dlxk2xq24,,7,click @7,,Vidimo plažu od koje smo bili daleko.,Vidimo plažu od koje smo bili daleko.,ai,,,25,,,
,Timer frame,html.Frame,2_14_1,,,,,,,3443.5200000000186,300968,300966.8,300980.48,304424,304424,2024-06-18T07:30:27.959Z,304429.96,Dpgv3oGnIS,incremental,anketa,6645cf40bc81b65c5faccf1d,participant,hcpibd0dlxk2xq24,,,,,Vidimo plažu od koje smo bili daleko.,Vidimo plažu od koje smo bili daleko.,ai,,,25,,,
,Spremanje,canvas.Screen,2_14_2,,,,,,skipped,,304424,,,304424,304424,2024-06-18T07:30:27.959Z,304429.96,Dpgv3oGnIS,incremental,anketa,6645cf40bc81b65c5faccf1d,participant,hcpibd0dlxk2xq24,,,,,Vidimo plažu od koje smo bili daleko.,Vidimo plažu od koje smo bili daleko.,ai,,,25,,,
,Question form,html.Form,2_14_3,,,,,,skipped,,304424,,,304424,304425,2024-06-18T07:30:27.959Z,304429.96,Dpgv3oGnIS,incremental,anketa,6645cf40bc81b65c5faccf1d,participant,hcpibd0dlxk2xq24,,,,,Vidimo plažu od koje smo bili daleko.,Vidimo plažu od koje smo bili daleko.,ai,,,25,,,
,Answer indication,canvas.Screen,2_14_4,,,,,,skipped,,304426,,,304424,304426,2024-06-18T07:30:27.962Z,304429.96,Dpgv3oGnIS,incremental,anketa,6645cf40bc81b65c5faccf1d,participant,hcpibd0dlxk2xq24,,,,,Vidimo plažu od koje smo bili daleko.,Vidimo plažu od koje smo bili daleko.,ai,,,25,,,
,inter-stimulus,canvas.Screen,2_14_5,,,,,,response,1245.039999999979,304426,304422.4,304429.96,305675,305679,2024-06-18T07:30:29.215Z,305701.08,Dpgv3oGnIS,incremental,anketa,6645cf40bc81b65c5faccf1d,participant,hcpibd0dlxk2xq24,,,mousedown,,Vidimo plažu od koje smo bili daleko.,Vidimo plažu od koje smo bili daleko.,ai,,,25,,,
,Sequence,flow.Sequence,2_14,,,,,,completion,8460.520000000019,297201,297199.24,297214.48,305675,305680,2024-06-18T07:30:29.216Z,305701.08,Dpgv3oGnIS,incremental,anketa,6645cf40bc81b65c5faccf1d,participant,hcpibd0dlxk2xq24,,,,,Vidimo plažu od koje smo bili daleko.,Vidimo plažu od koje smo bili daleko.,ai,,,25,,,
,context,canvas.Screen,2_15_0_0,,,,,,response,4473.919999999984,305681,305679.08,305701.08,310175,310188,2024-06-18T07:30:33.723Z,310195.86,Dpgv3oGnIS,incremental,anketa,6645cf40bc81b65c5faccf1d,participant,hcpibd0dlxk2xq24,,,click,,Kakav sam vidio barku u oceanu?,Vidio sam bijelu barku u oceanu.,nf,,,41,,,2305
,Timer frame,html.Frame,2_15_0,,,,,,,4487.919999999984,305680,305679.08,305701.08,310189,310189,2024-06-18T07:30:33.724Z,310195.86,Dpgv3oGnIS,incremental,anketa,6645cf40bc81b65c5faccf1d,participant,hcpibd0dlxk2xq24,,,,,Kakav sam vidio barku u oceanu?,Vidio sam bijelu barku u oceanu.,nf,,,41,,,2305
,stimulus,canvas.Screen,2_15_1_0,,,,,,response,2540.140000000014,310189,310186.88,310195.86,312736,312759,2024-06-18T07:30:36.295Z,312762.24,Dpgv3oGnIS,incremental,anketa,6645cf40bc81b65c5faccf1d,participant,hcpibd0dlxk2xq24,,1,click @1,,Kakav sam vidio barku u oceanu?,Vidio sam bijelu barku u oceanu.,nf,,,41,,,2305
,Timer frame,html.Frame,2_15_1,,,,,,,2563.140000000014,310189,310186.88,310195.86,312759,312759,2024-06-18T07:30:36.296Z,312762.24,Dpgv3oGnIS,incremental,anketa,6645cf40bc81b65c5faccf1d,participant,hcpibd0dlxk2xq24,,,,,Kakav sam vidio barku u oceanu?,Vidio sam bijelu barku u oceanu.,nf,,,41,,,2305
,Spremanje,canvas.Screen,2_15_2,,,,,,skipped,,312759,,,312759,312760,2024-06-18T07:30:36.296Z,312762.24,Dpgv3oGnIS,incremental,anketa,6645cf40bc81b65c5faccf1d,participant,hcpibd0dlxk2xq24,,,,,Kakav sam vidio barku u oceanu?,Vidio sam bijelu barku u oceanu.,nf,,,41,,,2305
,Question form,html.Form,2_15_3,,,,,,skipped,,312760,,,312759,312760,2024-06-18T07:30:36.296Z,312762.24,Dpgv3oGnIS,incremental,anketa,6645cf40bc81b65c5faccf1d,participant,hcpibd0dlxk2xq24,,,,,Kakav sam vidio barku u oceanu?,Vidio sam bijelu barku u oceanu.,nf,,,41,,,2305
,Answer indication,canvas.Screen,2_15_4,,,,,,skipped,,312763,,,312759,312764,2024-06-18T07:30:36.299Z,312762.24,Dpgv3oGnIS,incremental,anketa,6645cf40bc81b65c5faccf1d,participant,hcpibd0dlxk2xq24,,,,,Kakav sam vidio barku u oceanu?,Vidio sam bijelu barku u oceanu.,nf,,,41,,,2305
,inter-stimulus,canvas.Screen,2_15_5,,,,,,response,1224.7600000000093,312764,312758.48,312762.24,313987,313998,2024-06-18T07:30:37.533Z,314012.34,Dpgv3oGnIS,incremental,anketa,6645cf40bc81b65c5faccf1d,participant,hcpibd0dlxk2xq24,,,mousedown,,Kakav sam vidio barku u oceanu?,Vidio sam bijelu barku u oceanu.,nf,,,41,,,2305
,Sequence,flow.Sequence,2_15,,,,,,completion,8285.919999999984,305680,305679.08,305701.08,313987,313999,2024-06-18T07:30:37.534Z,314012.34,Dpgv3oGnIS,incremental,anketa,6645cf40bc81b65c5faccf1d,participant,hcpibd0dlxk2xq24,,,,,Kakav sam vidio barku u oceanu?,Vidio sam bijelu barku u oceanu.,nf,,,41,,,2305
,context,canvas.Screen,2_16_0_0,,,,,,response,2224.6599999999744,313999,313995.68,314012.34,316237,316255,2024-06-18T07:30:39.791Z,316261.72,Dpgv3oGnIS,incremental,anketa,6645cf40bc81b65c5faccf1d,participant,hcpibd0dlxk2xq24,,,click,,Čega je riješio taj misterij?,Riješio je taj misterij nestanka psa.,di,,,32,,,
,Timer frame,html.Frame,2_16_0,,,,,,,2242.6599999999744,313999,313995.68,314012.34,316255,316255,2024-06-18T07:30:39.792Z,316261.72,Dpgv3oGnIS,incremental,anketa,6645cf40bc81b65c5faccf1d,participant,hcpibd0dlxk2xq24,,,,,Čega je riješio taj misterij?,Riješio je taj misterij nestanka psa.,di,,,32,,,
,stimulus,canvas.Screen,2_16_1_0,,,,,,response,5116.280000000028,316256,316254.3,316261.72,321378,321396,2024-06-18T07:30:44.931Z,321394.32,Dpgv3oGnIS,incremental,anketa,6645cf40bc81b65c5faccf1d,participant,hcpibd0dlxk2xq24,,1,click @1,,Čega je riješio taj misterij?,Riješio je taj misterij nestanka psa.,di,,,32,,,
,Timer frame,html.Frame,2_16_1,,,,,,,5134.280000000028,316256,316254.3,316261.72,321396,321396,2024-06-18T07:30:44.932Z,321394.32,Dpgv3oGnIS,incremental,anketa,6645cf40bc81b65c5faccf1d,participant,hcpibd0dlxk2xq24,,,,,Čega je riješio taj misterij?,Riješio je taj misterij nestanka psa.,di,,,32,,,
,Spremanje,canvas.Screen,2_16_2,,,,,,skipped,,321396,,,321396,321396,2024-06-18T07:30:44.932Z,321394.32,Dpgv3oGnIS,incremental,anketa,6645cf40bc81b65c5faccf1d,participant,hcpibd0dlxk2xq24,,,,,Čega je riješio taj misterij?,Riješio je taj misterij nestanka psa.,di,,,32,,,
,Question form,html.Form,2_16_3,,,,,,skipped,,321396,,,321396,321396,2024-06-18T07:30:44.932Z,321394.32,Dpgv3oGnIS,incremental,anketa,6645cf40bc81b65c5faccf1d,participant,hcpibd0dlxk2xq24,,,,,Čega je riješio taj misterij?,Riješio je taj misterij nestanka psa.,di,,,32,,,
,Answer indication,canvas.Screen,2_16_4,,,,,,skipped,,321399,,,321396,321399,2024-06-18T07:30:44.934Z,321394.32,Dpgv3oGnIS,incremental,anketa,6645cf40bc81b65c5faccf1d,participant,hcpibd0dlxk2xq24,,,,,Čega je riješio taj misterij?,Riješio je taj misterij nestanka psa.,di,,,32,,,
,inter-stimulus,canvas.Screen,2_16_5,,,,,,response,2280.679999999993,321399,321394.12,321394.32,323675,323683,2024-06-18T07:30:47.218Z,323694.06,Dpgv3oGnIS,incremental,anketa,6645cf40bc81b65c5faccf1d,participant,hcpibd0dlxk2xq24,,,mousedown,,Čega je riješio taj misterij?,Riješio je taj misterij nestanka psa.,di,,,32,,,
,Sequence,flow.Sequence,2_16,,,,,,completion,9662.659999999974,313999,313995.68,314012.34,323675,323685,2024-06-18T07:30:47.221Z,323694.06,Dpgv3oGnIS,incremental,anketa,6645cf40bc81b65c5faccf1d,participant,hcpibd0dlxk2xq24,,,,,Čega je riješio taj misterij?,Riješio je taj misterij nestanka psa.,di,,,32,,,
,context,canvas.Screen,2_17_0_0,,,,,,response,6761.940000000002,323686,323679.32,323694.06,330456,330467,2024-06-18T07:30:54.002Z,330476.46,Dpgv3oGnIS,incremental,anketa,6645cf40bc81b65c5faccf1d,participant,hcpibd0dlxk2xq24,,,click,,Tko strah me i zamisliti s kakvim će se ogorčenjem vratiti kući??,Strah me i zamisliti s kakvim će se ogorčenjem moj brat vratiti kući..,ai,24,20,29,,,
,Timer frame,html.Frame,2_17_0,,,,,,,6772.940000000002,323686,323679.32,323694.06,330467,330468,2024-06-18T07:30:54.003Z,330476.46,Dpgv3oGnIS,incremental,anketa,6645cf40bc81b65c5faccf1d,participant,hcpibd0dlxk2xq24,,,,,Tko strah me i zamisliti s kakvim će se ogorčenjem vratiti kući??,Strah me i zamisliti s kakvim će se ogorčenjem moj brat vratiti kući..,ai,24,20,29,,,
,stimulus,canvas.Screen,2_17_1_0,,,,,,response,2557.539999999979,330469,330463.52,330476.46,333034,333044,2024-06-18T07:30:56.580Z,333042.72,Dpgv3oGnIS,incremental,anketa,6645cf40bc81b65c5faccf1d,participant,hcpibd0dlxk2xq24,,1,click @1,,Tko strah me i zamisliti s kakvim će se ogorčenjem vratiti kući??,Strah me i zamisliti s kakvim će se ogorčenjem moj brat vratiti kući..,ai,24,20,29,,,
,Timer frame,html.Frame,2_17_1,,,,,,,2567.539999999979,330468,330463.52,330476.46,333044,333045,2024-06-18T07:30:56.580Z,333042.72,Dpgv3oGnIS,incremental,anketa,6645cf40bc81b65c5faccf1d,participant,hcpibd0dlxk2xq24,,,,,Tko strah me i zamisliti s kakvim će se ogorčenjem vratiti kući??,Strah me i zamisliti s kakvim će se ogorčenjem moj brat vratiti kući..,ai,24,20,29,,,
,Spremanje,canvas.Screen,2_17_2,,,,,,skipped,,333045,,,333044,333045,2024-06-18T07:30:56.581Z,333042.72,Dpgv3oGnIS,incremental,anketa,6645cf40bc81b65c5faccf1d,participant,hcpibd0dlxk2xq24,,,,,Tko strah me i zamisliti s kakvim će se ogorčenjem vratiti kući??,Strah me i zamisliti s kakvim će se ogorčenjem moj brat vratiti kući..,ai,24,20,29,,,
,Question form,html.Form,2_17_3,,,,,,skipped,,333046,,,333044,333046,2024-06-18T07:30:56.581Z,333042.72,Dpgv3oGnIS,incremental,anketa,6645cf40bc81b65c5faccf1d,participant,hcpibd0dlxk2xq24,,,,,Tko strah me i zamisliti s kakvim će se ogorčenjem vratiti kući??,Strah me i zamisliti s kakvim će se ogorčenjem moj brat vratiti kući..,ai,24,20,29,,,
,Answer indication,canvas.Screen,2_17_4,,,,,,skipped,,333051,,,333044,333051,2024-06-18T07:30:56.587Z,333042.72,Dpgv3oGnIS,incremental,anketa,6645cf40bc81b65c5faccf1d,participant,hcpibd0dlxk2xq24,,,,,Tko strah me i zamisliti s kakvim će se ogorčenjem vratiti kući??,Strah me i zamisliti s kakvim će se ogorčenjem moj brat vratiti kući..,ai,24,20,29,,,
,inter-stimulus,canvas.Screen,2_17_5,,,,,,response,1007.2800000000279,333052,333042.44,333042.72,334050,334056,2024-06-18T07:30:57.592Z,334075.86,Dpgv3oGnIS,incremental,anketa,6645cf40bc81b65c5faccf1d,participant,hcpibd0dlxk2xq24,,,mousedown,,Tko strah me i zamisliti s kakvim će se ogorčenjem vratiti kući??,Strah me i zamisliti s kakvim će se ogorčenjem moj brat vratiti kući..,ai,24,20,29,,,
,Sequence,flow.Sequence,2_17,,,,,,completion,10355.940000000002,323686,323679.32,323694.06,334050,334057,2024-06-18T07:30:57.592Z,334075.86,Dpgv3oGnIS,incremental,anketa,6645cf40bc81b65c5faccf1d,participant,hcpibd0dlxk2xq24,,,,,Tko strah me i zamisliti s kakvim će se ogorčenjem vratiti kući??,Strah me i zamisliti s kakvim će se ogorčenjem moj brat vratiti kući..,ai,24,20,29,,,
,context,canvas.Screen,2_18_0_0,,,,,,response,2443.140000000014,334057,334059.32,334075.86,336519,336539,2024-06-18T07:31:00.076Z,336542.22,Dpgv3oGnIS,incremental,anketa,6645cf40bc81b65c5faccf1d,participant,hcpibd0dlxk2xq24,,,click,,O čemu je Ivo cijelu večer pričao?,Ivo je cijelu večer pričao o autima.,gf,,,47,,,
,Timer frame,html.Frame,2_18_0,,,,,,,2464.140000000014,334057,334059.32,334075.86,336540,336540,2024-06-18T07:31:00.076Z,336542.22,Dpgv3oGnIS,incremental,anketa,6645cf40bc81b65c5faccf1d,participant,hcpibd0dlxk2xq24,,,,,O čemu je Ivo cijelu večer pričao?,Ivo je cijelu večer pričao o autima.,gf,,,47,,,
,stimulus,canvas.Screen,2_18_1_0,,,,,,response,2757.780000000028,336540,336538.42,336542.22,339300,339313,2024-06-18T07:31:02.848Z,339325.2,Dpgv3oGnIS,incremental,anketa,6645cf40bc81b65c5faccf1d,participant,hcpibd0dlxk2xq24,,7,click @7,,O čemu je Ivo cijelu večer pričao?,Ivo je cijelu večer pričao o autima.,gf,,,47,,,
,Timer frame,html.Frame,2_18_1,,,,,,,2770.780000000028,336540,336538.42,336542.22,339313,339313,2024-06-18T07:31:02.848Z,339325.2,Dpgv3oGnIS,incremental,anketa,6645cf40bc81b65c5faccf1d,participant,hcpibd0dlxk2xq24,,,,,O čemu je Ivo cijelu večer pričao?,Ivo je cijelu večer pričao o autima.,gf,,,47,,,
,Spremanje,canvas.Screen,2_18_2,,,,,,skipped,,339313,,,339313,339314,2024-06-18T07:31:02.848Z,339325.2,Dpgv3oGnIS,incremental,anketa,6645cf40bc81b65c5faccf1d,participant,hcpibd0dlxk2xq24,,,,,O čemu je Ivo cijelu večer pričao?,Ivo je cijelu večer pričao o autima.,gf,,,47,,,
,Question form,html.Form,2_18_3,,,,,,skipped,,339314,,,339313,339314,2024-06-18T07:31:02.849Z,339325.2,Dpgv3oGnIS,incremental,anketa,6645cf40bc81b65c5faccf1d,participant,hcpibd0dlxk2xq24,,,,,O čemu je Ivo cijelu večer pričao?,Ivo je cijelu večer pričao o autima.,gf,,,47,,,
,Answer indication,canvas.Screen,2_18_4,,,,,,skipped,,339316,,,339313,339317,2024-06-18T07:31:02.852Z,339325.2,Dpgv3oGnIS,incremental,anketa,6645cf40bc81b65c5faccf1d,participant,hcpibd0dlxk2xq24,,,,,O čemu je Ivo cijelu večer pričao?,Ivo je cijelu večer pričao o autima.,gf,,,47,,,
,inter-stimulus,canvas.Screen,2_18_5,,,,,,response,1646.7999999999884,339317,339311.12,339325.2,340972,340980,2024-06-18T07:31:04.515Z,340991.84,Dpgv3oGnIS,incremental,anketa,6645cf40bc81b65c5faccf1d,participant,hcpibd0dlxk2xq24,,,mousedown,,O čemu je Ivo cijelu večer pričao?,Ivo je cijelu večer pričao o autima.,gf,,,47,,,
,Sequence,flow.Sequence,2_18,,,,,,completion,6896.140000000014,334057,334059.32,334075.86,340972,340980,2024-06-18T07:31:04.515Z,340991.84,Dpgv3oGnIS,incremental,anketa,6645cf40bc81b65c5faccf1d,participant,hcpibd0dlxk2xq24,,,,,O čemu je Ivo cijelu večer pričao?,Ivo je cijelu večer pričao o autima.,gf,,,47,,,
,context,canvas.Screen,2_19_0_0,,,,,,response,3041.1599999999744,340980,340979.22,340991.84,344033,344044,2024-06-18T07:31:07.579Z,344057.84,Dpgv3oGnIS,incremental,anketa,6645cf40bc81b65c5faccf1d,participant,hcpibd0dlxk2xq24,,,click,,Od čega je djed otišao u sanatorij odmarati?,Djed je otišao u sanatorij odmarati od gužve i buke..,ai,,26,30,,,
,Timer frame,html.Frame,2_19_0,,,,,,,3052.1599999999744,340980,340979.22,340991.84,344044,344044,2024-06-18T07:31:07.579Z,344057.84,Dpgv3oGnIS,incremental,anketa,6645cf40bc81b65c5faccf1d,participant,hcpibd0dlxk2xq24,,,,,Od čega je djed otišao u sanatorij odmarati?,Djed je otišao u sanatorij odmarati od gužve i buke..,ai,,26,30,,,
,stimulus,canvas.Screen,2_19_1_0,,,,,,response,2414.1599999999744,344044,344042.46,344057.84,346472,346479,2024-06-18T07:31:10.015Z,346490.86,Dpgv3oGnIS,incremental,anketa,6645cf40bc81b65c5faccf1d,participant,hcpibd0dlxk2xq24,,1,click @1,,Od čega je djed otišao u sanatorij odmarati?,Djed je otišao u sanatorij odmarati od gužve i buke..,ai,,26,30,,,
,Timer frame,html.Frame,2_19_1,,,,,,,2421.1599999999744,344044,344042.46,344057.84,346479,346480,2024-06-18T07:31:10.015Z,346490.86,Dpgv3oGnIS,incremental,anketa,6645cf40bc81b65c5faccf1d,participant,hcpibd0dlxk2xq24,,,,,Od čega je djed otišao u sanatorij odmarati?,Djed je otišao u sanatorij odmarati od gužve i buke..,ai,,26,30,,,
,Spremanje,canvas.Screen,2_19_2,,,,,,skipped,,346480,,,346479,346480,2024-06-18T07:31:10.016Z,346490.86,Dpgv3oGnIS,incremental,anketa,6645cf40bc81b65c5faccf1d,participant,hcpibd0dlxk2xq24,,,,,Od čega je djed otišao u sanatorij odmarati?,Djed je otišao u sanatorij odmarati od gužve i buke..,ai,,26,30,,,
,Question form,html.Form,2_19_3,,,,,,skipped,,346480,,,346479,346480,2024-06-18T07:31:10.016Z,346490.86,Dpgv3oGnIS,incremental,anketa,6645cf40bc81b65c5faccf1d,participant,hcpibd0dlxk2xq24,,,,,Od čega je djed otišao u sanatorij odmarati?,Djed je otišao u sanatorij odmarati od gužve i buke..,ai,,26,30,,,
,Answer indication,canvas.Screen,2_19_4,,,,,,skipped,,346483,,,346479,346483,2024-06-18T07:31:10.019Z,346490.86,Dpgv3oGnIS,incremental,anketa,6645cf40bc81b65c5faccf1d,participant,hcpibd0dlxk2xq24,,,,,Od čega je djed otišao u sanatorij odmarati?,Djed je otišao u sanatorij odmarati od gužve i buke..,ai,,26,30,,,
,inter-stimulus,canvas.Screen,2_19_5,,,,,,response,1231.140000000014,346484,346478.22,346490.86,347722,347728,2024-06-18T07:31:11.264Z,347740.92,Dpgv3oGnIS,incremental,anketa,6645cf40bc81b65c5faccf1d,participant,hcpibd0dlxk2xq24,,,mousedown,,Od čega je djed otišao u sanatorij odmarati?,Djed je otišao u sanatorij odmarati od gužve i buke..,ai,,26,30,,,
,Sequence,flow.Sequence,2_19,,,,,,completion,6730.159999999974,340980,340979.22,340991.84,347722,347729,2024-06-18T07:31:11.264Z,347740.92,Dpgv3oGnIS,incremental,anketa,6645cf40bc81b65c5faccf1d,participant,hcpibd0dlxk2xq24,,,,,Od čega je djed otišao u sanatorij odmarati?,Djed je otišao u sanatorij odmarati od gužve i buke..,ai,,26,30,,,
,context,canvas.Screen,2_20_0_0,,,,,,response,3480.0800000000163,347729,347727.86,347740.92,351221,351233,2024-06-18T07:31:14.768Z,351240.22,Dpgv3oGnIS,incremental,anketa,6645cf40bc81b65c5faccf1d,participant,hcpibd0dlxk2xq24,,,click,,Jedna vrlo duboka tamo postoji pećina.,Tamo postoji jedna vrlo duboka pećina.,lbc,,,37,,,
,Timer frame,html.Frame,2_20_0,,,,,,,3492.0800000000163,347729,347727.86,347740.92,351233,351233,2024-06-18T07:31:14.768Z,351240.22,Dpgv3oGnIS,incremental,anketa,6645cf40bc81b65c5faccf1d,participant,hcpibd0dlxk2xq24,,,,,Jedna vrlo duboka tamo postoji pećina.,Tamo postoji jedna vrlo duboka pećina.,lbc,,,37,,,
,stimulus,canvas.Screen,2_20_1_0,,,,,,response,2777.780000000028,351233,351230.98,351240.22,354018,354032,2024-06-18T07:31:17.567Z,354039.78,Dpgv3oGnIS,incremental,anketa,6645cf40bc81b65c5faccf1d,participant,hcpibd0dlxk2xq24,,1,click @1,,Jedna vrlo duboka tamo postoji pećina.,Tamo postoji jedna vrlo duboka pećina.,lbc,,,37,,,
,Timer frame,html.Frame,2_20_1,,,,,,,2791.780000000028,351233,351230.98,351240.22,354032,354032,2024-06-18T07:31:17.567Z,354039.78,Dpgv3oGnIS,incremental,anketa,6645cf40bc81b65c5faccf1d,participant,hcpibd0dlxk2xq24,,,,,Jedna vrlo duboka tamo postoji pećina.,Tamo postoji jedna vrlo duboka pećina.,lbc,,,37,,,
,Spremanje,canvas.Screen,2_20_2,,,,,,skipped,,354032,,,354032,354032,2024-06-18T07:31:17.568Z,354039.78,Dpgv3oGnIS,incremental,anketa,6645cf40bc81b65c5faccf1d,participant,hcpibd0dlxk2xq24,,,,,Jedna vrlo duboka tamo postoji pećina.,Tamo postoji jedna vrlo duboka pećina.,lbc,,,37,,,
,Question form,html.Form,2_20_3,,,,,,skipped,,354033,,,354032,354033,2024-06-18T07:31:17.568Z,354039.78,Dpgv3oGnIS,incremental,anketa,6645cf40bc81b65c5faccf1d,participant,hcpibd0dlxk2xq24,,,,,Jedna vrlo duboka tamo postoji pećina.,Tamo postoji jedna vrlo duboka pećina.,lbc,,,37,,,
,Answer indication,canvas.Screen,2_20_4,,,,,,skipped,,354035,,,354032,354035,2024-06-18T07:31:17.571Z,354039.78,Dpgv3oGnIS,incremental,anketa,6645cf40bc81b65c5faccf1d,participant,hcpibd0dlxk2xq24,,,,,Jedna vrlo duboka tamo postoji pećina.,Tamo postoji jedna vrlo duboka pećina.,lbc,,,37,,,
,inter-stimulus,canvas.Screen,2_20_5,,,,,,response,806.2199999999721,354035,354030.08,354039.78,354846,354863,2024-06-18T07:31:18.399Z,354873.12,Dpgv3oGnIS,incremental,anketa,6645cf40bc81b65c5faccf1d,participant,hcpibd0dlxk2xq24,,,mousedown,,Jedna vrlo duboka tamo postoji pećina.,Tamo postoji jedna vrlo duboka pećina.,lbc,,,37,,,
,Sequence,flow.Sequence,2_20,,,,,,completion,7105.080000000016,347729,347727.86,347740.92,354846,354863,2024-06-18T07:31:18.399Z,354873.12,Dpgv3oGnIS,incremental,anketa,6645cf40bc81b65c5faccf1d,participant,hcpibd0dlxk2xq24,,,,,Jedna vrlo duboka tamo postoji pećina.,Tamo postoji jedna vrlo duboka pećina.,lbc,,,37,,,
,context,canvas.Screen,2_21_0_0,,,,,,response,2332.8800000000047,354864,354862.86,354873.12,357206,357219,2024-06-18T07:31:20.755Z,357222.64,Dpgv3oGnIS,incremental,anketa,6645cf40bc81b65c5faccf1d,participant,hcpibd0dlxk2xq24,,,click,,"Koliko čega Luka je zaboravio, on mi je posudio?","Luka je zaboravio, koliko mi je novca posudio.",ai,,,28,,,
,Timer frame,html.Frame,2_21_0,,,,,,,2346.8800000000047,354863,354862.86,354873.12,357220,357220,2024-06-18T07:31:20.755Z,357222.64,Dpgv3oGnIS,incremental,anketa,6645cf40bc81b65c5faccf1d,participant,hcpibd0dlxk2xq24,,,,,"Koliko čega Luka je zaboravio, on mi je posudio?","Luka je zaboravio, koliko mi je novca posudio.",ai,,,28,,,
,stimulus,canvas.Screen,2_21_1_0,,,,,,response,2921.359999999986,357220,357218.64,357222.64,360144,360152,2024-06-18T07:31:23.687Z,360155.66,Dpgv3oGnIS,incremental,anketa,6645cf40bc81b65c5faccf1d,participant,hcpibd0dlxk2xq24,,1,click @1,,"Koliko čega Luka je zaboravio, on mi je posudio?","Luka je zaboravio, koliko mi je novca posudio.",ai,,,28,,,
,Timer frame,html.Frame,2_21_1,,,,,,,2929.359999999986,357220,357218.64,357222.64,360152,360152,2024-06-18T07:31:23.687Z,360155.66,Dpgv3oGnIS,incremental,anketa,6645cf40bc81b65c5faccf1d,participant,hcpibd0dlxk2xq24,,,,,"Koliko čega Luka je zaboravio, on mi je posudio?","Luka je zaboravio, koliko mi je novca posudio.",ai,,,28,,,
,Spremanje,canvas.Screen,2_21_2,,,,,,skipped,,360152,,,360152,360152,2024-06-18T07:31:23.687Z,360155.66,Dpgv3oGnIS,incremental,anketa,6645cf40bc81b65c5faccf1d,participant,hcpibd0dlxk2xq24,,,,,"Koliko čega Luka je zaboravio, on mi je posudio?","Luka je zaboravio, koliko mi je novca posudio.",ai,,,28,,,
,Question form,html.Form,2_21_3,,,,,,skipped,,360152,,,360152,360152,2024-06-18T07:31:23.688Z,360155.66,Dpgv3oGnIS,incremental,anketa,6645cf40bc81b65c5faccf1d,participant,hcpibd0dlxk2xq24,,,,,"Koliko čega Luka je zaboravio, on mi je posudio?","Luka je zaboravio, koliko mi je novca posudio.",ai,,,28,,,
,Answer indication,canvas.Screen,2_21_4,,,,,,skipped,,360155,,,360152,360155,2024-06-18T07:31:23.690Z,360155.66,Dpgv3oGnIS,incremental,anketa,6645cf40bc81b65c5faccf1d,participant,hcpibd0dlxk2xq24,,,,,"Koliko čega Luka je zaboravio, on mi je posudio?","Luka je zaboravio, koliko mi je novca posudio.",ai,,,28,,,
,inter-stimulus,canvas.Screen,2_21_5,,,,,,response,1066.3400000000256,360155,360151.02,360155.66,361222,361238,2024-06-18T07:31:24.774Z,361265.92,Dpgv3oGnIS,incremental,anketa,6645cf40bc81b65c5faccf1d,participant,hcpibd0dlxk2xq24,,,mousedown,,"Koliko čega Luka je zaboravio, on mi je posudio?","Luka je zaboravio, koliko mi je novca posudio.",ai,,,28,,,
,Sequence,flow.Sequence,2_21,,,,,,completion,6348.880000000005,354863,354862.86,354873.12,361222,361238,2024-06-18T07:31:24.774Z,361265.92,Dpgv3oGnIS,incremental,anketa,6645cf40bc81b65c5faccf1d,participant,hcpibd0dlxk2xq24,,,,,"Koliko čega Luka je zaboravio, on mi je posudio?","Luka je zaboravio, koliko mi je novca posudio.",ai,,,28,,,
,context,canvas.Screen,2_22_0_0,,,,,,response,3471.0800000000163,361238,361239.22,361265.92,364737,364756,2024-06-18T07:31:28.292Z,364755,Dpgv3oGnIS,incremental,anketa,6645cf40bc81b65c5faccf1d,participant,hcpibd0dlxk2xq24,,,click,,Kakve izgrađene u viktorijansko doba te zgrade su izgrađene??,Te su zgrade izgrađene u viktorijansko doba.,nf,36,,43,,,
,Timer frame,html.Frame,2_22_0,,,,,,,3490.0800000000163,361238,361239.22,361265.92,364756,364756,2024-06-18T07:31:28.292Z,364755,Dpgv3oGnIS,incremental,anketa,6645cf40bc81b65c5faccf1d,participant,hcpibd0dlxk2xq24,,,,,Kakve izgrađene u viktorijansko doba te zgrade su izgrađene??,Te su zgrade izgrađene u viktorijansko doba.,nf,36,,43,,,
,stimulus,canvas.Screen,2_22_1_0,,,,,,response,2154,364757,364754.72,364755,366909,366921,2024-06-18T07:31:30.456Z,366921.32,Dpgv3oGnIS,incremental,anketa,6645cf40bc81b65c5faccf1d,participant,hcpibd0dlxk2xq24,,1,click @1,,Kakve izgrađene u viktorijansko doba te zgrade su izgrađene??,Te su zgrade izgrađene u viktorijansko doba.,nf,36,,43,,,
,Timer frame,html.Frame,2_22_1,,,,,,,2166,364756,364754.72,364755,366921,366921,2024-06-18T07:31:30.457Z,366921.32,Dpgv3oGnIS,incremental,anketa,6645cf40bc81b65c5faccf1d,participant,hcpibd0dlxk2xq24,,,,,Kakve izgrađene u viktorijansko doba te zgrade su izgrađene??,Te su zgrade izgrađene u viktorijansko doba.,nf,36,,43,,,
,Spremanje,canvas.Screen,2_22_2,,,,,,skipped,,366922,,,366921,366922,2024-06-18T07:31:30.458Z,366921.32,Dpgv3oGnIS,incremental,anketa,6645cf40bc81b65c5faccf1d,participant,hcpibd0dlxk2xq24,,,,,Kakve izgrađene u viktorijansko doba te zgrade su izgrađene??,Te su zgrade izgrađene u viktorijansko doba.,nf,36,,43,,,
,Question form,html.Form,2_22_3,,,,,,skipped,,366922,,,366921,366922,2024-06-18T07:31:30.458Z,366921.32,Dpgv3oGnIS,incremental,anketa,6645cf40bc81b65c5faccf1d,participant,hcpibd0dlxk2xq24,,,,,Kakve izgrađene u viktorijansko doba te zgrade su izgrađene??,Te su zgrade izgrađene u viktorijansko doba.,nf,36,,43,,,
,Answer indication,canvas.Screen,2_22_4,,,,,,skipped,,366924,,,366921,366924,2024-06-18T07:31:30.460Z,366921.32,Dpgv3oGnIS,incremental,anketa,6645cf40bc81b65c5faccf1d,participant,hcpibd0dlxk2xq24,,,,,Kakve izgrađene u viktorijansko doba te zgrade su izgrađene??,Te su zgrade izgrađene u viktorijansko doba.,nf,36,,43,,,
,inter-stimulus,canvas.Screen,2_22_5,,,,,,response,1158.679999999993,366925,366919.62,366921.32,368080,368104,2024-06-18T07:31:31.640Z,368121.22,Dpgv3oGnIS,incremental,anketa,6645cf40bc81b65c5faccf1d,participant,hcpibd0dlxk2xq24,,,mousedown,,Kakve izgrađene u viktorijansko doba te zgrade su izgrađene??,Te su zgrade izgrađene u viktorijansko doba.,nf,36,,43,,,
,Sequence,flow.Sequence,2_22,,,,,,completion,6814.080000000016,361238,361239.22,361265.92,368080,368104,2024-06-18T07:31:31.640Z,368121.22,Dpgv3oGnIS,incremental,anketa,6645cf40bc81b65c5faccf1d,participant,hcpibd0dlxk2xq24,,,,,Kakve izgrađene u viktorijansko doba te zgrade su izgrađene??,Te su zgrade izgrađene u viktorijansko doba.,nf,36,,43,,,
,context,canvas.Screen,2_23_0_0,,,,,,response,2224.780000000028,368105,368104.54,368121.22,370346,370364,2024-06-18T07:31:33.900Z,370370.78,Dpgv3oGnIS,incremental,anketa,6645cf40bc81b65c5faccf1d,participant,hcpibd0dlxk2xq24,,,click,,Tko je ovo bio jasan slučaj da je zapravo pohlepna osoba??,Ovo je bio jasan slučaj da je on zapravo pohlepna osoba..,cnp,41,40,8,,,
,Timer frame,html.Frame,2_23_0,,,,,,,2242.780000000028,368104,368104.54,368121.22,370364,370364,2024-06-18T07:31:33.900Z,370370.78,Dpgv3oGnIS,incremental,anketa,6645cf40bc81b65c5faccf1d,participant,hcpibd0dlxk2xq24,,,,,Tko je ovo bio jasan slučaj da je zapravo pohlepna osoba??,Ovo je bio jasan slučaj da je on zapravo pohlepna osoba..,cnp,41,40,8,,,
,stimulus,canvas.Screen,2_23_1_0,,,,,,response,3960.219999999972,370365,370362.88,370370.78,374331,374348,2024-06-18T07:31:37.883Z,374353.5,Dpgv3oGnIS,incremental,anketa,6645cf40bc81b65c5faccf1d,participant,hcpibd0dlxk2xq24,,1,click @1,,Tko je ovo bio jasan slučaj da je zapravo pohlepna osoba??,Ovo je bio jasan slučaj da je on zapravo pohlepna osoba..,cnp,41,40,8,,,
,Timer frame,html.Frame,2_23_1,,,,,,,3977.219999999972,370365,370362.88,370370.78,374348,374348,2024-06-18T07:31:37.884Z,374353.5,Dpgv3oGnIS,incremental,anketa,6645cf40bc81b65c5faccf1d,participant,hcpibd0dlxk2xq24,,,,,Tko je ovo bio jasan slučaj da je zapravo pohlepna osoba??,Ovo je bio jasan slučaj da je on zapravo pohlepna osoba..,cnp,41,40,8,,,
,Spremanje,canvas.Screen,2_23_2,,,,,,skipped,,374348,,,374348,374348,2024-06-18T07:31:37.884Z,374353.5,Dpgv3oGnIS,incremental,anketa,6645cf40bc81b65c5faccf1d,participant,hcpibd0dlxk2xq24,,,,,Tko je ovo bio jasan slučaj da je zapravo pohlepna osoba??,Ovo je bio jasan slučaj da je on zapravo pohlepna osoba..,cnp,41,40,8,,,
,Question form,html.Form,2_23_3,,,,,,skipped,,374348,,,374348,374349,2024-06-18T07:31:37.884Z,374353.5,Dpgv3oGnIS,incremental,anketa,6645cf40bc81b65c5faccf1d,participant,hcpibd0dlxk2xq24,,,,,Tko je ovo bio jasan slučaj da je zapravo pohlepna osoba??,Ovo je bio jasan slučaj da je on zapravo pohlepna osoba..,cnp,41,40,8,,,
,Answer indication,canvas.Screen,2_23_4,,,,,,skipped,,374351,,,374348,374351,2024-06-18T07:31:37.887Z,374353.5,Dpgv3oGnIS,incremental,anketa,6645cf40bc81b65c5faccf1d,participant,hcpibd0dlxk2xq24,,,,,Tko je ovo bio jasan slučaj da je zapravo pohlepna osoba??,Ovo je bio jasan slučaj da je on zapravo pohlepna osoba..,cnp,41,40,8,,,
,inter-stimulus,canvas.Screen,2_23_5,,,,,,response,2415.5,374351,374346.7,374353.5,376769,376776,2024-06-18T07:31:40.312Z,376786.92,Dpgv3oGnIS,incremental,anketa,6645cf40bc81b65c5faccf1d,participant,hcpibd0dlxk2xq24,,,mousedown,,Tko je ovo bio jasan slučaj da je zapravo pohlepna osoba??,Ovo je bio jasan slučaj da je on zapravo pohlepna osoba..,cnp,41,40,8,,,
,Sequence,flow.Sequence,2_23,,,,,,completion,8647.780000000028,368104,368104.54,368121.22,376769,376777,2024-06-18T07:31:40.313Z,376786.92,Dpgv3oGnIS,incremental,anketa,6645cf40bc81b65c5faccf1d,participant,hcpibd0dlxk2xq24,,,,,Tko je ovo bio jasan slučaj da je zapravo pohlepna osoba??,Ovo je bio jasan slučaj da je on zapravo pohlepna osoba..,cnp,41,40,8,,,
,context,canvas.Screen,2_24_0_0,,,,,,response,3154.0800000000163,376777,376775.16,376786.92,379941,379951,2024-06-18T07:31:43.487Z,379952.84,Dpgv3oGnIS,incremental,anketa,6645cf40bc81b65c5faccf1d,participant,hcpibd0dlxk2xq24,,,click,,Koliko vidim dječaka kojem je ljubazni poštar poklonio bicikla??,Vidim dječaka kojem je ljubazni poštar poklonio dva bicikla..,cnp,38,38,10,,,2305
,Timer frame,html.Frame,2_24_0,,,,,,,3164.0800000000163,376777,376775.16,376786.92,379951,379951,2024-06-18T07:31:43.487Z,379952.84,Dpgv3oGnIS,incremental,anketa,6645cf40bc81b65c5faccf1d,participant,hcpibd0dlxk2xq24,,,,,Koliko vidim dječaka kojem je ljubazni poštar poklonio bicikla??,Vidim dječaka kojem je ljubazni poštar poklonio dva bicikla..,cnp,38,38,10,,,2305
,stimulus,canvas.Screen,2_24_1_0,,,,,,response,2753.1599999999744,379952,379941.64,379952.84,382706,382715,2024-06-18T07:31:46.251Z,382719.08,Dpgv3oGnIS,incremental,anketa,6645cf40bc81b65c5faccf1d,participant,hcpibd0dlxk2xq24,,1,click @1,,Koliko vidim dječaka kojem je ljubazni poštar poklonio bicikla??,Vidim dječaka kojem je ljubazni poštar poklonio dva bicikla..,cnp,38,38,10,,,2305
,Timer frame,html.Frame,2_24_1,,,,,,,2763.1599999999744,379951,379941.64,379952.84,382716,382716,2024-06-18T07:31:46.251Z,382719.08,Dpgv3oGnIS,incremental,anketa,6645cf40bc81b65c5faccf1d,participant,hcpibd0dlxk2xq24,,,,,Koliko vidim dječaka kojem je ljubazni poštar poklonio bicikla??,Vidim dječaka kojem je ljubazni poštar poklonio dva bicikla..,cnp,38,38,10,,,2305
,Spremanje,canvas.Screen,2_24_2,,,,,,skipped,,382716,,,382716,382716,2024-06-18T07:31:46.252Z,382719.08,Dpgv3oGnIS,incremental,anketa,6645cf40bc81b65c5faccf1d,participant,hcpibd0dlxk2xq24,,,,,Koliko vidim dječaka kojem je ljubazni poštar poklonio bicikla??,Vidim dječaka kojem je ljubazni poštar poklonio dva bicikla..,cnp,38,38,10,,,2305
,Question form,html.Form,2_24_3,,,,,,skipped,,382716,,,382716,382716,2024-06-18T07:31:46.252Z,382719.08,Dpgv3oGnIS,incremental,anketa,6645cf40bc81b65c5faccf1d,participant,hcpibd0dlxk2xq24,,,,,Koliko vidim dječaka kojem je ljubazni poštar poklonio bicikla??,Vidim dječaka kojem je ljubazni poštar poklonio dva bicikla..,cnp,38,38,10,,,2305
,Answer indication,canvas.Screen,2_24_4,,,,,,skipped,,382718,,,382716,382719,2024-06-18T07:31:46.255Z,382719.08,Dpgv3oGnIS,incremental,anketa,6645cf40bc81b65c5faccf1d,participant,hcpibd0dlxk2xq24,,,,,Koliko vidim dječaka kojem je ljubazni poštar poklonio bicikla??,Vidim dječaka kojem je ljubazni poštar poklonio dva bicikla..,cnp,38,38,10,,,2305
,inter-stimulus,canvas.Screen,2_24_5,,,,,,response,721.9199999999837,382719,382714.3,382719.08,383441,383451,2024-06-18T07:31:46.987Z,383469,Dpgv3oGnIS,incremental,anketa,6645cf40bc81b65c5faccf1d,participant,hcpibd0dlxk2xq24,,,mousedown,,Koliko vidim dječaka kojem je ljubazni poštar poklonio bicikla??,Vidim dječaka kojem je ljubazni poštar poklonio dva bicikla..,cnp,38,38,10,,,2305
,Sequence,flow.Sequence,2_24,,,,,,completion,6654.080000000016,376777,376775.16,376786.92,383441,383452,2024-06-18T07:31:46.987Z,383469,Dpgv3oGnIS,incremental,anketa,6645cf40bc81b65c5faccf1d,participant,hcpibd0dlxk2xq24,,,,,Koliko vidim dječaka kojem je ljubazni poštar poklonio bicikla??,Vidim dječaka kojem je ljubazni poštar poklonio dva bicikla..,cnp,38,38,10,,,2305
,context,canvas.Screen,2_25_0_0,,,,,,response,3799,383452,383452.48,383469,387268,387272,2024-06-18T07:31:50.808Z,387285.08,Dpgv3oGnIS,incremental,anketa,6645cf40bc81b65c5faccf1d,participant,hcpibd0dlxk2xq24,,,click,,Čije sam cvijeće izašao iz kuće i zaboravio zaliti?,Izašao sam iz kuće i zaboravio zaliti majkino cvijeće.,csi,0,0,4,ZALITI MAJKINO CVIJEĆE; ZALITI MAMINO CVIJECE; ZALITI CVIJECE MAJKE; ZALITI MAJČINO CVIJEĆE; ZALITI CVIJEĆE MAJKE; ZALITI MAJKINO CVIJECE; MAJKINO CVIJEĆE ZALITI; MAJKINO CVIJECE ZALITI; ZALITI CVIJECE; ZALITI CVIJEĆE; ZALITI CVJEĆE; ZALITI CVJECE,Što sam zaboravio napraviti?,
,Timer frame,html.Frame,2_25_0,,,,,,,3803,383452,383452.48,383469,387272,387272,2024-06-18T07:31:50.808Z,387285.08,Dpgv3oGnIS,incremental,anketa,6645cf40bc81b65c5faccf1d,participant,hcpibd0dlxk2xq24,,,,,Čije sam cvijeće izašao iz kuće i zaboravio zaliti?,Izašao sam iz kuće i zaboravio zaliti majkino cvijeće.,csi,0,0,4,ZALITI MAJKINO CVIJEĆE; ZALITI MAMINO CVIJECE; ZALITI CVIJECE MAJKE; ZALITI MAJČINO CVIJEĆE; ZALITI CVIJEĆE MAJKE; ZALITI MAJKINO CVIJECE; MAJKINO CVIJEĆE ZALITI; MAJKINO CVIJECE ZALITI; ZALITI CVIJECE; ZALITI CVIJEĆE; ZALITI CVJEĆE; ZALITI CVJECE,Što sam zaboravio napraviti?,
,stimulus,canvas.Screen,2_25_1_0,,,,,,response,4342.919999999984,387272,387271.2,387285.08,391628,391648,2024-06-18T07:31:55.183Z,391651.14,Dpgv3oGnIS,incremental,anketa,6645cf40bc81b65c5faccf1d,participant,hcpibd0dlxk2xq24,,1,click @1,,Čije sam cvijeće izašao iz kuće i zaboravio zaliti?,Izašao sam iz kuće i zaboravio zaliti majkino cvijeće.,csi,0,0,4,ZALITI MAJKINO CVIJEĆE; ZALITI MAMINO CVIJECE; ZALITI CVIJECE MAJKE; ZALITI MAJČINO CVIJEĆE; ZALITI CVIJEĆE MAJKE; ZALITI MAJKINO CVIJECE; MAJKINO CVIJEĆE ZALITI; MAJKINO CVIJECE ZALITI; ZALITI CVIJECE; ZALITI CVIJEĆE; ZALITI CVJEĆE; ZALITI CVJECE,Što sam zaboravio napraviti?,
,Timer frame,html.Frame,2_25_1,,,,,,,4362.919999999984,387272,387271.2,387285.08,391648,391648,2024-06-18T07:31:55.183Z,391651.14,Dpgv3oGnIS,incremental,anketa,6645cf40bc81b65c5faccf1d,participant,hcpibd0dlxk2xq24,,,,,Čije sam cvijeće izašao iz kuće i zaboravio zaliti?,Izašao sam iz kuće i zaboravio zaliti majkino cvijeće.,csi,0,0,4,ZALITI MAJKINO CVIJEĆE; ZALITI MAMINO CVIJECE; ZALITI CVIJECE MAJKE; ZALITI MAJČINO CVIJEĆE; ZALITI CVIJEĆE MAJKE; ZALITI MAJKINO CVIJECE; MAJKINO CVIJEĆE ZALITI; MAJKINO CVIJECE ZALITI; ZALITI CVIJECE; ZALITI CVIJEĆE; ZALITI CVJEĆE; ZALITI CVJECE,Što sam zaboravio napraviti?,
,Spremanje,canvas.Screen,2_25_2,,,,,,response,1179.859999999986,391648,391646.64,391651.14,392831,392840,2024-06-18T07:31:56.376Z,392851.1,Dpgv3oGnIS,incremental,anketa,6645cf40bc81b65c5faccf1d,participant,hcpibd0dlxk2xq24,,,mousedown,,Čije sam cvijeće izašao iz kuće i zaboravio zaliti?,Izašao sam iz kuće i zaboravio zaliti majkino cvijeće.,csi,0,0,4,ZALITI MAJKINO CVIJEĆE; ZALITI MAMINO CVIJECE; ZALITI CVIJECE MAJKE; ZALITI MAJČINO CVIJEĆE; ZALITI CVIJEĆE MAJKE; ZALITI MAJKINO CVIJECE; MAJKINO CVIJEĆE ZALITI; MAJKINO CVIJECE ZALITI; ZALITI CVIJECE; ZALITI CVIJEĆE; ZALITI CVJEĆE; ZALITI CVJECE,Što sam zaboravio napraviti?,
,Question form,html.Form,2_25_3,,,,,,form submission,6710.900000000023,392840,392839.08,392851.1,399562,399563,2024-06-18T07:32:03.099Z,399567.64,Dpgv3oGnIS,incremental,anketa,6645cf40bc81b65c5faccf1d,participant,hcpibd0dlxk2xq24,,,,zaliti cvijeće,Čije sam cvijeće izašao iz kuće i zaboravio zaliti?,Izašao sam iz kuće i zaboravio zaliti majkino cvijeće.,csi,0,0,4,ZALITI MAJKINO CVIJEĆE; ZALITI MAMINO CVIJECE; ZALITI CVIJECE MAJKE; ZALITI MAJČINO CVIJEĆE; ZALITI CVIJEĆE MAJKE; ZALITI MAJKINO CVIJECE; MAJKINO CVIJEĆE ZALITI; MAJKINO CVIJECE ZALITI; ZALITI CVIJECE; ZALITI CVIJEĆE; ZALITI CVJEĆE; ZALITI CVJECE,Što sam zaboravio napraviti?,
,Answer indication,canvas.Screen,2_25_4,,,,,,response,2606.359999999986,399567,399559.3,399567.64,402174,402194,2024-06-18T07:32:05.729Z,402216.34,Dpgv3oGnIS,incremental,anketa,6645cf40bc81b65c5faccf1d,participant,hcpibd0dlxk2xq24,,,mousedown,,Čije sam cvijeće izašao iz kuće i zaboravio zaliti?,Izašao sam iz kuće i zaboravio zaliti majkino cvijeće.,csi,0,0,4,ZALITI MAJKINO CVIJEĆE; ZALITI MAMINO CVIJECE; ZALITI CVIJECE MAJKE; ZALITI MAJČINO CVIJEĆE; ZALITI CVIJEĆE MAJKE; ZALITI MAJKINO CVIJECE; MAJKINO CVIJEĆE ZALITI; MAJKINO CVIJECE ZALITI; ZALITI CVIJECE; ZALITI CVIJEĆE; ZALITI CVJEĆE; ZALITI CVJECE,Što sam zaboravio napraviti?,
,inter-stimulus,canvas.Screen,2_25_5,,,,,,response,5426.659999999974,402194,402199.66,402216.34,407643,407652,2024-06-18T07:32:11.188Z,407666,Dpgv3oGnIS,incremental,anketa,6645cf40bc81b65c5faccf1d,participant,hcpibd0dlxk2xq24,,,mousedown,,Čije sam cvijeće izašao iz kuće i zaboravio zaliti?,Izašao sam iz kuće i zaboravio zaliti majkino cvijeće.,csi,0,0,4,ZALITI MAJKINO CVIJEĆE; ZALITI MAMINO CVIJECE; ZALITI CVIJECE MAJKE; ZALITI MAJČINO CVIJEĆE; ZALITI CVIJEĆE MAJKE; ZALITI MAJKINO CVIJECE; MAJKINO CVIJEĆE ZALITI; MAJKINO CVIJECE ZALITI; ZALITI CVIJECE; ZALITI CVIJEĆE; ZALITI CVJEĆE; ZALITI CVJECE,Što sam zaboravio napraviti?,
,Sequence,flow.Sequence,2_25,,,,,,completion,24174,383452,383452.48,383469,407643,407653,2024-06-18T07:32:11.188Z,407666,Dpgv3oGnIS,incremental,anketa,6645cf40bc81b65c5faccf1d,participant,hcpibd0dlxk2xq24,,,,,Čije sam cvijeće izašao iz kuće i zaboravio zaliti?,Izašao sam iz kuće i zaboravio zaliti majkino cvijeće.,csi,0,0,4,ZALITI MAJKINO CVIJEĆE; ZALITI MAMINO CVIJECE; ZALITI CVIJECE MAJKE; ZALITI MAJČINO CVIJEĆE; ZALITI CVIJEĆE MAJKE; ZALITI MAJKINO CVIJECE; MAJKINO CVIJEĆE ZALITI; MAJKINO CVIJECE ZALITI; ZALITI CVIJECE; ZALITI CVIJEĆE; ZALITI CVJEĆE; ZALITI CVJECE,Što sam zaboravio napraviti?,
,context,canvas.Screen,2_26_0_0,,,,,,response,2757,407653,407651.18,407666,410423,410444,2024-06-18T07:32:13.980Z,410465.2,Dpgv3oGnIS,incremental,anketa,6645cf40bc81b65c5faccf1d,participant,hcpibd0dlxk2xq24,,,click,,Što je kupio i majicu?,On je kupio tenisice I majicu.,csi,0,0,0,,,2305
,Timer frame,html.Frame,2_26_0,,,,,,,2779,407653,407651.18,407666,410445,410445,2024-06-18T07:32:13.981Z,410465.2,Dpgv3oGnIS,incremental,anketa,6645cf40bc81b65c5faccf1d,participant,hcpibd0dlxk2xq24,,,,,Što je kupio i majicu?,On je kupio tenisice I majicu.,csi,0,0,0,,,2305
,stimulus,canvas.Screen,2_26_1_0,,,,,,response,2317.7999999999884,410446,410448.54,410465.2,412783,412794,2024-06-18T07:32:16.330Z,412798.18,Dpgv3oGnIS,incremental,anketa,6645cf40bc81b65c5faccf1d,participant,hcpibd0dlxk2xq24,,1,click @1,,Što je kupio i majicu?,On je kupio tenisice I majicu.,csi,0,0,0,,,2305
,Timer frame,html.Frame,2_26_1,,,,,,,2329.7999999999884,410445,410448.54,410465.2,412795,412795,2024-06-18T07:32:16.331Z,412798.18,Dpgv3oGnIS,incremental,anketa,6645cf40bc81b65c5faccf1d,participant,hcpibd0dlxk2xq24,,,,,Što je kupio i majicu?,On je kupio tenisice I majicu.,csi,0,0,0,,,2305
,Spremanje,canvas.Screen,2_26_2,,,,,,skipped,,412795,,,412795,412796,2024-06-18T07:32:16.331Z,412798.18,Dpgv3oGnIS,incremental,anketa,6645cf40bc81b65c5faccf1d,participant,hcpibd0dlxk2xq24,,,,,Što je kupio i majicu?,On je kupio tenisice I majicu.,csi,0,0,0,,,2305
,Question form,html.Form,2_26_3,,,,,,skipped,,412796,,,412795,412796,2024-06-18T07:32:16.332Z,412798.18,Dpgv3oGnIS,incremental,anketa,6645cf40bc81b65c5faccf1d,participant,hcpibd0dlxk2xq24,,,,,Što je kupio i majicu?,On je kupio tenisice I majicu.,csi,0,0,0,,,2305
,Answer indication,canvas.Screen,2_26_4,,,,,,skipped,,412805,,,412795,412805,2024-06-18T07:32:16.341Z,412798.18,Dpgv3oGnIS,incremental,anketa,6645cf40bc81b65c5faccf1d,participant,hcpibd0dlxk2xq24,,,,,Što je kupio i majicu?,On je kupio tenisice I majicu.,csi,0,0,0,,,2305
,inter-stimulus,canvas.Screen,2_26_5,,,,,,response,1515.820000000007,412805,412791.18,412798.18,414314,414326,2024-06-18T07:32:17.861Z,414331.42,Dpgv3oGnIS,incremental,anketa,6645cf40bc81b65c5faccf1d,participant,hcpibd0dlxk2xq24,,,mousedown,,Što je kupio i majicu?,On je kupio tenisice I majicu.,csi,0,0,0,,,2305
,Sequence,flow.Sequence,2_26,,,,,,completion,6648,407653,407651.18,407666,414314,414326,2024-06-18T07:32:17.861Z,414331.42,Dpgv3oGnIS,incremental,anketa,6645cf40bc81b65c5faccf1d,participant,hcpibd0dlxk2xq24,,,,,Što je kupio i majicu?,On je kupio tenisice I majicu.,csi,0,0,0,,,2305
,context,canvas.Screen,2_27_0_0,,,,,,response,4061.5800000000163,414326,414322.98,414331.42,418393,418411,2024-06-18T07:32:21.947Z,418414.16,Dpgv3oGnIS,incremental,anketa,6645cf40bc81b65c5faccf1d,participant,hcpibd0dlxk2xq24,,,click,,Tko ono da je prodao svoj stan za toliki novac nevjerojatno je??,Ono da je Goran prodao svoj stan za toliki novac nevjerojatno je..,si,30,32,17,,,
,Timer frame,html.Frame,2_27_0,,,,,,,4079.5800000000163,414326,414322.98,414331.42,418411,418412,2024-06-18T07:32:21.948Z,418414.16,Dpgv3oGnIS,incremental,anketa,6645cf40bc81b65c5faccf1d,participant,hcpibd0dlxk2xq24,,,,,Tko ono da je prodao svoj stan za toliki novac nevjerojatno je??,Ono da je Goran prodao svoj stan za toliki novac nevjerojatno je..,si,30,32,17,,,
,stimulus,canvas.Screen,2_27_1_0,,,,,,response,2586.8400000000256,418412,418410.58,418414.16,421001,421008,2024-06-18T07:32:24.543Z,421013.76,Dpgv3oGnIS,incremental,anketa,6645cf40bc81b65c5faccf1d,participant,hcpibd0dlxk2xq24,,1,click @1,,Tko ono da je prodao svoj stan za toliki novac nevjerojatno je??,Ono da je Goran prodao svoj stan za toliki novac nevjerojatno je..,si,30,32,17,,,
,Timer frame,html.Frame,2_27_1,,,,,,,2593.8400000000256,418412,418410.58,418414.16,421008,421008,2024-06-18T07:32:24.543Z,421013.76,Dpgv3oGnIS,incremental,anketa,6645cf40bc81b65c5faccf1d,participant,hcpibd0dlxk2xq24,,,,,Tko ono da je prodao svoj stan za toliki novac nevjerojatno je??,Ono da je Goran prodao svoj stan za toliki novac nevjerojatno je..,si,30,32,17,,,
,Spremanje,canvas.Screen,2_27_2,,,,,,skipped,,421008,,,421008,421009,2024-06-18T07:32:24.544Z,421013.76,Dpgv3oGnIS,incremental,anketa,6645cf40bc81b65c5faccf1d,participant,hcpibd0dlxk2xq24,,,,,Tko ono da je prodao svoj stan za toliki novac nevjerojatno je??,Ono da je Goran prodao svoj stan za toliki novac nevjerojatno je..,si,30,32,17,,,
,Question form,html.Form,2_27_3,,,,,,skipped,,421009,,,421008,421009,2024-06-18T07:32:24.544Z,421013.76,Dpgv3oGnIS,incremental,anketa,6645cf40bc81b65c5faccf1d,participant,hcpibd0dlxk2xq24,,,,,Tko ono da je prodao svoj stan za toliki novac nevjerojatno je??,Ono da je Goran prodao svoj stan za toliki novac nevjerojatno je..,si,30,32,17,,,
,Answer indication,canvas.Screen,2_27_4,,,,,,skipped,,421011,,,421008,421011,2024-06-18T07:32:24.547Z,421013.76,Dpgv3oGnIS,incremental,anketa,6645cf40bc81b65c5faccf1d,participant,hcpibd0dlxk2xq24,,,,,Tko ono da je prodao svoj stan za toliki novac nevjerojatno je??,Ono da je Goran prodao svoj stan za toliki novac nevjerojatno je..,si,30,32,17,,,
,inter-stimulus,canvas.Screen,2_27_5,,,,,,response,1347.2399999999907,421011,421006.3,421013.76,422361,422373,2024-06-18T07:32:25.908Z,422380.26,Dpgv3oGnIS,incremental,anketa,6645cf40bc81b65c5faccf1d,participant,hcpibd0dlxk2xq24,,,mousedown,,Tko ono da je prodao svoj stan za toliki novac nevjerojatno je??,Ono da je Goran prodao svoj stan za toliki novac nevjerojatno je..,si,30,32,17,,,
,Sequence,flow.Sequence,2_27,,,,,,completion,8029.580000000016,414326,414322.98,414331.42,422361,422373,2024-06-18T07:32:25.909Z,422380.26,Dpgv3oGnIS,incremental,anketa,6645cf40bc81b65c5faccf1d,participant,hcpibd0dlxk2xq24,,,,,Tko ono da je prodao svoj stan za toliki novac nevjerojatno je??,Ono da je Goran prodao svoj stan za toliki novac nevjerojatno je..,si,30,32,17,,,
,context,canvas.Screen,2_28_0_0,,,,,,response,2949.7399999999907,422374,422371.6,422380.26,425330,425353,2024-06-18T07:32:28.888Z,425363.14,Dpgv3oGnIS,incremental,anketa,6645cf40bc81b65c5faccf1d,participant,hcpibd0dlxk2xq24,,,click,,Što bismo voljeli da Drago napravi bez prigovora??,Voljeli bismo da Drago opere auto bez prigovora..,si,26,22,16,,,
,Timer frame,html.Frame,2_28_0,,,,,,,2972.7399999999907,422373,422371.6,422380.26,425353,425353,2024-06-18T07:32:28.888Z,425363.14,Dpgv3oGnIS,incremental,anketa,6645cf40bc81b65c5faccf1d,participant,hcpibd0dlxk2xq24,,,,,Što bismo voljeli da Drago napravi bez prigovora??,Voljeli bismo da Drago opere auto bez prigovora..,si,26,22,16,,,
,stimulus,canvas.Screen,2_28_1_0,,,,,,response,2497.859999999986,425353,425351.12,425363.14,427861,427869,2024-06-18T07:32:31.405Z,427879.4,Dpgv3oGnIS,incremental,anketa,6645cf40bc81b65c5faccf1d,participant,hcpibd0dlxk2xq24,,7,click @7,,Što bismo voljeli da Drago napravi bez prigovora??,Voljeli bismo da Drago opere auto bez prigovora..,si,26,22,16,,,
,Timer frame,html.Frame,2_28_1,,,,,,,2505.859999999986,425353,425351.12,425363.14,427869,427870,2024-06-18T07:32:31.406Z,427879.4,Dpgv3oGnIS,incremental,anketa,6645cf40bc81b65c5faccf1d,participant,hcpibd0dlxk2xq24,,,,,Što bismo voljeli da Drago napravi bez prigovora??,Voljeli bismo da Drago opere auto bez prigovora..,si,26,22,16,,,
,Spremanje,canvas.Screen,2_28_2,,,,,,skipped,,427871,,,427869,427872,2024-06-18T07:32:31.406Z,427879.4,Dpgv3oGnIS,incremental,anketa,6645cf40bc81b65c5faccf1d,participant,hcpibd0dlxk2xq24,,,,,Što bismo voljeli da Drago napravi bez prigovora??,Voljeli bismo da Drago opere auto bez prigovora..,si,26,22,16,,,
,Question form,html.Form,2_28_3,,,,,,skipped,,427872,,,427869,427872,2024-06-18T07:32:31.407Z,427879.4,Dpgv3oGnIS,incremental,anketa,6645cf40bc81b65c5faccf1d,participant,hcpibd0dlxk2xq24,,,,,Što bismo voljeli da Drago napravi bez prigovora??,Voljeli bismo da Drago opere auto bez prigovora..,si,26,22,16,,,
,Answer indication,canvas.Screen,2_28_4,,,,,,skipped,,427874,,,427869,427875,2024-06-18T07:32:31.411Z,427879.4,Dpgv3oGnIS,incremental,anketa,6645cf40bc81b65c5faccf1d,participant,hcpibd0dlxk2xq24,,,,,Što bismo voljeli da Drago napravi bez prigovora??,Voljeli bismo da Drago opere auto bez prigovora..,si,26,22,16,,,
,inter-stimulus,canvas.Screen,2_28_5,,,,,,response,1122.5999999999767,427876,427867.88,427879.4,429002,429017,2024-06-18T07:32:32.553Z,429029.52,Dpgv3oGnIS,incremental,anketa,6645cf40bc81b65c5faccf1d,participant,hcpibd0dlxk2xq24,,,mousedown,,Što bismo voljeli da Drago napravi bez prigovora??,Voljeli bismo da Drago opere auto bez prigovora..,si,26,22,16,,,
,Sequence,flow.Sequence,2_28,,,,,,completion,6621.739999999991,422373,422371.6,422380.26,429002,429018,2024-06-18T07:32:32.553Z,429029.52,Dpgv3oGnIS,incremental,anketa,6645cf40bc81b65c5faccf1d,participant,hcpibd0dlxk2xq24,,,,,Što bismo voljeli da Drago napravi bez prigovora??,Voljeli bismo da Drago opere auto bez prigovora..,si,26,22,16,,,
,context,canvas.Screen,2_29_0_0,,,,,,response,4940.479999999981,429018,429016.32,429029.52,433970,433979,2024-06-18T07:32:37.515Z,433978.52,Dpgv3oGnIS,incremental,anketa,6645cf40bc81b65c5faccf1d,participant,hcpibd0dlxk2xq24,,,click,,Što si saznao tužnu vijest da je Petar izgubio u podzemnoj??,Saznao si tužnu vijest da je Petar izgubio putovnicu u podzemnoj..,cnp,38,34,9,,,
,Timer frame,html.Frame,2_29_0,,,,,,,4950.479999999981,429018,429016.32,429029.52,433980,433980,2024-06-18T07:32:37.516Z,433978.52,Dpgv3oGnIS,incremental,anketa,6645cf40bc81b65c5faccf1d,participant,hcpibd0dlxk2xq24,,,,,Što si saznao tužnu vijest da je Petar izgubio u podzemnoj??,Saznao si tužnu vijest da je Petar izgubio putovnicu u podzemnoj..,cnp,38,34,9,,,
,stimulus,canvas.Screen,2_29_1_0,,,,,,response,3039.4799999999814,433980,433978.2,433978.52,437018,437031,2024-06-18T07:32:40.567Z,437044.72,Dpgv3oGnIS,incremental,anketa,6645cf40bc81b65c5faccf1d,participant,hcpibd0dlxk2xq24,,1,click @1,,Što si saznao tužnu vijest da je Petar izgubio u podzemnoj??,Saznao si tužnu vijest da je Petar izgubio putovnicu u podzemnoj..,cnp,38,34,9,,,
,Timer frame,html.Frame,2_29_1,,,,,,,3052.4799999999814,433980,433978.2,433978.52,437031,437031,2024-06-18T07:32:40.568Z,437044.72,Dpgv3oGnIS,incremental,anketa,6645cf40bc81b65c5faccf1d,participant,hcpibd0dlxk2xq24,,,,,Što si saznao tužnu vijest da je Petar izgubio u podzemnoj??,Saznao si tužnu vijest da je Petar izgubio putovnicu u podzemnoj..,cnp,38,34,9,,,
,Spremanje,canvas.Screen,2_29_2,,,,,,skipped,,437032,,,437031,437032,2024-06-18T07:32:40.568Z,437044.72,Dpgv3oGnIS,incremental,anketa,6645cf40bc81b65c5faccf1d,participant,hcpibd0dlxk2xq24,,,,,Što si saznao tužnu vijest da je Petar izgubio u podzemnoj??,Saznao si tužnu vijest da je Petar izgubio putovnicu u podzemnoj..,cnp,38,34,9,,,
,Question form,html.Form,2_29_3,,,,,,skipped,,437032,,,437031,437032,2024-06-18T07:32:40.568Z,437044.72,Dpgv3oGnIS,incremental,anketa,6645cf40bc81b65c5faccf1d,participant,hcpibd0dlxk2xq24,,,,,Što si saznao tužnu vijest da je Petar izgubio u podzemnoj??,Saznao si tužnu vijest da je Petar izgubio putovnicu u podzemnoj..,cnp,38,34,9,,,
,Answer indication,canvas.Screen,2_29_4,,,,,,skipped,,437034,,,437031,437034,2024-06-18T07:32:40.570Z,437044.72,Dpgv3oGnIS,incremental,anketa,6645cf40bc81b65c5faccf1d,participant,hcpibd0dlxk2xq24,,,,,Što si saznao tužnu vijest da je Petar izgubio u podzemnoj??,Saznao si tužnu vijest da je Petar izgubio putovnicu u podzemnoj..,cnp,38,34,9,,,
,inter-stimulus,canvas.Screen,2_29_5,,,,,,response,1176.280000000028,437034,437030.44,437044.72,438221,438229,2024-06-18T07:32:41.764Z,438244.82,Dpgv3oGnIS,incremental,anketa,6645cf40bc81b65c5faccf1d,participant,hcpibd0dlxk2xq24,,,mousedown,,Što si saznao tužnu vijest da je Petar izgubio u podzemnoj??,Saznao si tužnu vijest da je Petar izgubio putovnicu u podzemnoj..,cnp,38,34,9,,,
,Sequence,flow.Sequence,2_29,,,,,,completion,9191.479999999981,429018,429016.32,429029.52,438221,438230,2024-06-18T07:32:41.766Z,438244.82,Dpgv3oGnIS,incremental,anketa,6645cf40bc81b65c5faccf1d,participant,hcpibd0dlxk2xq24,,,,,Što si saznao tužnu vijest da je Petar izgubio u podzemnoj??,Saznao si tužnu vijest da je Petar izgubio putovnicu u podzemnoj..,cnp,38,34,9,,,
,context,canvas.Screen,2_30_0_0,,,,,,response,1866.179999999993,438230,438228.14,438244.82,440111,440119,2024-06-18T07:32:43.655Z,440127.72,Dpgv3oGnIS,incremental,anketa,6645cf40bc81b65c5faccf1d,participant,hcpibd0dlxk2xq24,,,click,,Kakva je kraj mene biciklom prošla djevojka?,Kraj mene je biciklom prošla vrlo lijepa djevojka.,ai,,,27,,,
,Timer frame,html.Frame,2_30_0,,,,,,,1874.179999999993,438230,438228.14,438244.82,440119,440119,2024-06-18T07:32:43.655Z,440127.72,Dpgv3oGnIS,incremental,anketa,6645cf40bc81b65c5faccf1d,participant,hcpibd0dlxk2xq24,,,,,Kakva je kraj mene biciklom prošla djevojka?,Kraj mene je biciklom prošla vrlo lijepa djevojka.,ai,,,27,,,
,stimulus,canvas.Screen,2_30_1_0,,,,,,response,3874.280000000028,440120,440118.54,440127.72,444002,444017,2024-06-18T07:32:47.553Z,444027.18,Dpgv3oGnIS,incremental,anketa,6645cf40bc81b65c5faccf1d,participant,hcpibd0dlxk2xq24,,1,click @1,,Kakva je kraj mene biciklom prošla djevojka?,Kraj mene je biciklom prošla vrlo lijepa djevojka.,ai,,,27,,,
,Timer frame,html.Frame,2_30_1,,,,,,,3889.280000000028,440119,440118.54,440127.72,444017,444018,2024-06-18T07:32:47.553Z,444027.18,Dpgv3oGnIS,incremental,anketa,6645cf40bc81b65c5faccf1d,participant,hcpibd0dlxk2xq24,,,,,Kakva je kraj mene biciklom prošla djevojka?,Kraj mene je biciklom prošla vrlo lijepa djevojka.,ai,,,27,,,
,Spremanje,canvas.Screen,2_30_2,,,,,,skipped,,444018,,,444017,444018,2024-06-18T07:32:47.553Z,444027.18,Dpgv3oGnIS,incremental,anketa,6645cf40bc81b65c5faccf1d,participant,hcpibd0dlxk2xq24,,,,,Kakva je kraj mene biciklom prošla djevojka?,Kraj mene je biciklom prošla vrlo lijepa djevojka.,ai,,,27,,,
,Question form,html.Form,2_30_3,,,,,,skipped,,444018,,,444017,444018,2024-06-18T07:32:47.554Z,444027.18,Dpgv3oGnIS,incremental,anketa,6645cf40bc81b65c5faccf1d,participant,hcpibd0dlxk2xq24,,,,,Kakva je kraj mene biciklom prošla djevojka?,Kraj mene je biciklom prošla vrlo lijepa djevojka.,ai,,,27,,,
,Answer indication,canvas.Screen,2_30_4,,,,,,skipped,,444022,,,444017,444023,2024-06-18T07:32:47.558Z,444027.18,Dpgv3oGnIS,incremental,anketa,6645cf40bc81b65c5faccf1d,participant,hcpibd0dlxk2xq24,,,,,Kakva je kraj mene biciklom prošla djevojka?,Kraj mene je biciklom prošla vrlo lijepa djevojka.,ai,,,27,,,
,inter-stimulus,canvas.Screen,2_30_5,,,,,,response,755.820000000007,444023,444015.3,444027.18,444783,444800,2024-06-18T07:32:48.335Z,444811.66,Dpgv3oGnIS,incremental,anketa,6645cf40bc81b65c5faccf1d,participant,hcpibd0dlxk2xq24,,,mousedown,,Kakva je kraj mene biciklom prošla djevojka?,Kraj mene je biciklom prošla vrlo lijepa djevojka.,ai,,,27,,,
,Sequence,flow.Sequence,2_30,,,,,,completion,6538.179999999993,438230,438228.14,438244.82,444783,444800,2024-06-18T07:32:48.336Z,444811.66,Dpgv3oGnIS,incremental,anketa,6645cf40bc81b65c5faccf1d,participant,hcpibd0dlxk2xq24,,,,,Kakva je kraj mene biciklom prošla djevojka?,Kraj mene je biciklom prošla vrlo lijepa djevojka.,ai,,,27,,,
,context,canvas.Screen,2_31_0_0,,,,,,response,2298.3400000000256,444801,444798.96,444811.66,447110,447122,2024-06-18T07:32:50.658Z,447126.72,Dpgv3oGnIS,incremental,anketa,6645cf40bc81b65c5faccf1d,participant,hcpibd0dlxk2xq24,,,click,,Kad je Lena pronašla honorarni posao?,Lena je pronašla honorarni posao ubrzo nakon praznika..,gf,,32,51,,,
,Timer frame,html.Frame,2_31_0,,,,,,,2310.3400000000256,444801,444798.96,444811.66,447122,447123,2024-06-18T07:32:50.659Z,447126.72,Dpgv3oGnIS,incremental,anketa,6645cf40bc81b65c5faccf1d,participant,hcpibd0dlxk2xq24,,,,,Kad je Lena pronašla honorarni posao?,Lena je pronašla honorarni posao ubrzo nakon praznika..,gf,,32,51,,,
,stimulus,canvas.Screen,2_31_1_0,,,,,,response,2468.280000000028,447123,447122.04,447126.72,449595,449608,2024-06-18T07:32:53.143Z,449609.68,Dpgv3oGnIS,incremental,anketa,6645cf40bc81b65c5faccf1d,participant,hcpibd0dlxk2xq24,,7,click @7,,Kad je Lena pronašla honorarni posao?,Lena je pronašla honorarni posao ubrzo nakon praznika..,gf,,32,51,,,
,Timer frame,html.Frame,2_31_1,,,,,,,2481.280000000028,447123,447122.04,447126.72,449608,449608,2024-06-18T07:32:53.144Z,449609.68,Dpgv3oGnIS,incremental,anketa,6645cf40bc81b65c5faccf1d,participant,hcpibd0dlxk2xq24,,,,,Kad je Lena pronašla honorarni posao?,Lena je pronašla honorarni posao ubrzo nakon praznika..,gf,,32,51,,,
,Spremanje,canvas.Screen,2_31_2,,,,,,skipped,,449608,,,449608,449608,2024-06-18T07:32:53.144Z,449609.68,Dpgv3oGnIS,incremental,anketa,6645cf40bc81b65c5faccf1d,participant,hcpibd0dlxk2xq24,,,,,Kad je Lena pronašla honorarni posao?,Lena je pronašla honorarni posao ubrzo nakon praznika..,gf,,32,51,,,
,Question form,html.Form,2_31_3,,,,,,skipped,,449608,,,449608,449608,2024-06-18T07:32:53.144Z,449609.68,Dpgv3oGnIS,incremental,anketa,6645cf40bc81b65c5faccf1d,participant,hcpibd0dlxk2xq24,,,,,Kad je Lena pronašla honorarni posao?,Lena je pronašla honorarni posao ubrzo nakon praznika..,gf,,32,51,,,
