meta,sender,sender_type,sender_id,age,education,croatian-knowledge,occupation,,ended_on,duration,time_run,time_render,time_show,time_end,time_commit,timestamp,time_switch,openLabId,type,task,project,status,code,confirmationCode,response,response_action,answer_true,stimulus,context,island_type,transfer_s,transfer_c,id,right_answer,question,change_date
"{""labjs_version"":""20.2.4"",""labjs_build"":{""flavor"":""production"",""commit"":""f5b4a49f956347addd546a832a3327688c2c0fef""},""location"":""https://open-lab.online/test/anketa/66a938c4e3bab725623a4202"",""userAgent"":""Mozilla/5.0 (Linux; Android 10; K) AppleWebKit/537.36 (KHTML, like Gecko) Chrome/127.0.0.0 Mobile Safari/537.36"",""platform"":""Linux armv81"",""language"":""hr-HR"",""locale"":""hr"",""timeZone"":""Europe/Zagreb"",""timezoneOffset"":-120,""screen_width"":384,""screen_height"":832,""scroll_width"":980,""scroll_height"":1966,""window_innerWidth"":980,""window_innerHeight"":1871,""devicePixelRatio"":2.8125}",Demography form,html.Form,0,18,highschool,mother-tongue,Studentica računarstva,,form submission,28320,1418,1423.9,1465.5,29785.5,29786.599999964237,2024-07-30T19:02:57.865Z,29818.9,fuDh-MbTW2,incremental,anketa,6645cf40bc81b65c5faccf1d,participant,hcpib7dulz8sbzje,763703,,,,,,,,,,,,
,context,canvas.Screen,1_0,,,,,,response,5252.699999964236,29787,29785.6,29818.9,35071.59999996424,35321,2024-07-30T19:03:03.400Z,35418.3,fuDh-MbTW2,incremental,anketa,6645cf40bc81b65c5faccf1d,participant,hcpib7dulz8sbzje,,,click,,,,,,,,,,
,stimulus,canvas.Screen,1_1,,,,,,response,45493.599999976155,35321.30000001192,35334.6,35418.3,80911.89999997616,81160,2024-07-30T19:03:49.239Z,81191.3,fuDh-MbTW2,incremental,anketa,6645cf40bc81b65c5faccf1d,participant,hcpib7dulz8sbzje,,7,click @7,,,,,,,,,,
,inter-stimulus,canvas.Screen,1_2,,,,,,response,3592.0999999761552,81160.30000001192,81158,81191.3,84783.39999997616,85016.89999997616,2024-07-30T19:03:53.095Z,85121.6,fuDh-MbTW2,incremental,anketa,6645cf40bc81b65c5faccf1d,participant,hcpib7dulz8sbzje,,,mousedown,,,,,,,,,,
,context,canvas.Screen,1_3,,,,,,response,1830.7999999761523,85017.30000001192,85021.4,85121.6,86952.39999997616,87173.39999997616,2024-07-30T19:03:55.252Z,87190.5,fuDh-MbTW2,incremental,anketa,6645cf40bc81b65c5faccf1d,participant,hcpib7dulz8sbzje,,,click,,,,,,,,,,
,stimulus,canvas.Screen,1_4,,,,,,response,8930.699999988079,87173.59999996424,87173.7,87190.5,96121.19999998808,96354.39999997616,2024-07-30T19:04:04.433Z,96459.4,fuDh-MbTW2,incremental,anketa,6645cf40bc81b65c5faccf1d,participant,hcpib7dulz8sbzje,,1,click @1,,,,,,,,,,
,inter-stimulus,canvas.Screen,1_5,,,,,,response,1213.6000000000058,96354.80000001192,96359.2,96459.4,97673,97889.89999997616,2024-07-30T19:04:05.968Z,97944.4,fuDh-MbTW2,incremental,anketa,6645cf40bc81b65c5faccf1d,participant,hcpib7dulz8sbzje,,,mousedown,,,,,,,,,,
,context,canvas.Screen,1_6,,,,,,response,2398.499999976164,97890.09999996424,97902.6,97944.4,100342.89999997616,100576.09999996424,2024-07-30T19:04:08.655Z,100680.6,fuDh-MbTW2,incremental,anketa,6645cf40bc81b65c5faccf1d,participant,hcpib7dulz8sbzje,,,click,,,,,,,,,,
,stimulus,canvas.Screen,1_7_0,,,,,,response,4934.299999976152,100580.09999996424,100580.5,100680.6,105614.89999997616,105850.59999996424,2024-07-30T19:04:13.929Z,105869.6,fuDh-MbTW2,incremental,anketa,6645cf40bc81b65c5faccf1d,participant,hcpib7dulz8sbzje,,3,click @3,,,,,,,,,,
,Timer frame,html.Frame,1_7,,,,,,,5170.299999976152,100576.39999997616,100580.5,100680.6,105850.89999997616,105851.39999997616,2024-07-30T19:04:13.930Z,105869.6,fuDh-MbTW2,incremental,anketa,6645cf40bc81b65c5faccf1d,participant,hcpib7dulz8sbzje,,,,,,,,,,,,,
,Screen,canvas.Screen,1_8,,,,,,response,6553.299999976152,105851.59999996424,105852.9,105869.6,112422.89999997616,112647.59999996424,2024-07-30T19:04:20.726Z,112719.4,fuDh-MbTW2,incremental,anketa,6645cf40bc81b65c5faccf1d,participant,hcpib7dulz8sbzje,,,mousedown,,,,,,,,,,
,Question form,html.Form,1_9,,,,,,form submission,6482.900000011927,112647.89999997616,112652.5,112719.4,119202.30000001192,119202.89999997616,2024-07-30T19:04:27.281Z,119260.1,fuDh-MbTW2,incremental,anketa,6645cf40bc81b65c5faccf1d,participant,hcpib7dulz8sbzje,,,,zrele,,,,,,,,,
,Screen,canvas.Screen,1_10,,,,,,response,2139.5999999880733,119205.5,119210,119260.1,121399.69999998808,121615.30000001192,2024-07-30T19:04:29.694Z,121637.7,fuDh-MbTW2,incremental,anketa,6645cf40bc81b65c5faccf1d,participant,hcpib7dulz8sbzje,,,mousedown,,,,,,,,,,
,inter-stimulus,canvas.Screen,1_11,,,,,,response,55896.99999998808,121615.59999996424,121621,121637.7,177534.69999998808,177784.80000001192,2024-07-30T19:05:25.863Z,177813.9,fuDh-MbTW2,incremental,anketa,6645cf40bc81b65c5faccf1d,participant,hcpib7dulz8sbzje,,,mousedown,,,,,,,,,,
,First stimuli,flow.Sequence,1,,,,,,completion,147715.79999998808,29787,29785.6,29818.9,177534.69999998808,177787.5,2024-07-30T19:05:25.866Z,177813.9,fuDh-MbTW2,incremental,anketa,6645cf40bc81b65c5faccf1d,participant,hcpib7dulz8sbzje,,,,,,,,,,,,,
,context,canvas.Screen,2_0_0_0,,,,,,response,2157.4000000119267,177789.09999996424,177797.2,177813.9,179971.30000001192,180203.5,2024-07-30T19:05:28.282Z,180242.7,fuDh-MbTW2,incremental,anketa,6645cf40bc81b65c5faccf1d,participant,hcpib7dulz8sbzje,,,click,,Jedna vrlo duboka tamo postoji pećina.,Tamo postoji jedna vrlo duboka pećina.,lbc,,,37,,,
,Timer frame,html.Frame,2_0_0,,,,,,,2389.9000000119267,177787.69999998808,177797.2,177813.9,180203.80000001192,180204.19999998808,2024-07-30T19:05:28.283Z,180242.7,fuDh-MbTW2,incremental,anketa,6645cf40bc81b65c5faccf1d,participant,hcpib7dulz8sbzje,,,,,Jedna vrlo duboka tamo postoji pećina.,Tamo postoji jedna vrlo duboka pećina.,lbc,,,37,,,
,stimulus,canvas.Screen,2_0_1_0,,,,,,response,7389.399999964226,180204.80000001192,180209.5,180242.7,187632.09999996424,187840,2024-07-30T19:05:35.919Z,187895.5,fuDh-MbTW2,incremental,anketa,6645cf40bc81b65c5faccf1d,participant,hcpib7dulz8sbzje,,2,click @2,,Jedna vrlo duboka tamo postoji pećina.,Tamo postoji jedna vrlo duboka pećina.,lbc,,,37,,,
,Timer frame,html.Frame,2_0_1,,,,,,,7597.600000011909,180204.39999997616,180209.5,180242.7,187840.30000001192,187841.39999997616,2024-07-30T19:05:35.920Z,187895.5,fuDh-MbTW2,incremental,anketa,6645cf40bc81b65c5faccf1d,participant,hcpib7dulz8sbzje,,,,,Jedna vrlo duboka tamo postoji pećina.,Tamo postoji jedna vrlo duboka pećina.,lbc,,,37,,,
,Spremanje,canvas.Screen,2_0_2,,,,,,skipped,,187841.59999996424,,,187840.30000001192,187841.80000001192,2024-07-30T19:05:35.920Z,187895.5,fuDh-MbTW2,incremental,anketa,6645cf40bc81b65c5faccf1d,participant,hcpib7dulz8sbzje,,,,,Jedna vrlo duboka tamo postoji pećina.,Tamo postoji jedna vrlo duboka pećina.,lbc,,,37,,,
,Question form,html.Form,2_0_3,,,,,,skipped,,187842,,,187840.30000001192,187842.09999996424,2024-07-30T19:05:35.921Z,187895.5,fuDh-MbTW2,incremental,anketa,6645cf40bc81b65c5faccf1d,participant,hcpib7dulz8sbzje,,,,,Jedna vrlo duboka tamo postoji pećina.,Tamo postoji jedna vrlo duboka pećina.,lbc,,,37,,,
,Answer indication,canvas.Screen,2_0_4,,,,,,skipped,,187845.19999998808,,,187840.30000001192,187845.5,2024-07-30T19:05:35.924Z,187895.5,fuDh-MbTW2,incremental,anketa,6645cf40bc81b65c5faccf1d,participant,hcpib7dulz8sbzje,,,,,Jedna vrlo duboka tamo postoji pećina.,Tamo postoji jedna vrlo duboka pećina.,lbc,,,37,,,
,inter-stimulus,canvas.Screen,2_0_5,,,,,,response,913.3000000119209,187845.69999998808,187853.6,187895.5,188808.80000001192,189026.39999997616,2024-07-30T19:05:37.105Z,189063.5,fuDh-MbTW2,incremental,anketa,6645cf40bc81b65c5faccf1d,participant,hcpib7dulz8sbzje,,,mousedown,,Jedna vrlo duboka tamo postoji pećina.,Tamo postoji jedna vrlo duboka pećina.,lbc,,,37,,,
,Sequence,flow.Sequence,2_0,,,,,,completion,10994.900000011927,177787.59999996424,177797.2,177813.9,188808.80000001192,189027,2024-07-30T19:05:37.106Z,189063.5,fuDh-MbTW2,incremental,anketa,6645cf40bc81b65c5faccf1d,participant,hcpib7dulz8sbzje,,,,,Jedna vrlo duboka tamo postoji pećina.,Tamo postoji jedna vrlo duboka pećina.,lbc,,,37,,,
,context,canvas.Screen,2_1_0_0,,,,,,response,1463.800000011921,189027.5,189030.1,189063.5,190527.30000001192,190754.5,2024-07-30T19:05:38.833Z,190773.8,fuDh-MbTW2,incremental,anketa,6645cf40bc81b65c5faccf1d,participant,hcpib7dulz8sbzje,,,click,,Večeras je Anna nalakirala nokte.,Anna je večeras nalakirala nokte.,gf,,,49,,,
,Timer frame,html.Frame,2_1_0,,,,,,,1691.3999999761581,189027.19999998808,189030.1,189063.5,190754.89999997616,190755,2024-07-30T19:05:38.834Z,190773.8,fuDh-MbTW2,incremental,anketa,6645cf40bc81b65c5faccf1d,participant,hcpib7dulz8sbzje,,,,,Večeras je Anna nalakirala nokte.,Anna je večeras nalakirala nokte.,gf,,,49,,,
,stimulus,canvas.Screen,2_1_1_0,,,,,,response,2874.3999999880907,190755.5,190757.1,190773.8,193648.19999998808,193883.89999997616,2024-07-30T19:05:41.962Z,193936.4,fuDh-MbTW2,incremental,anketa,6645cf40bc81b65c5faccf1d,participant,hcpib7dulz8sbzje,,7,click @7,,Večeras je Anna nalakirala nokte.,Anna je večeras nalakirala nokte.,gf,,,49,,,
,Timer frame,html.Frame,2_1_1,,,,,,,3110.299999964249,190755.09999996424,190757.1,190773.8,193884.09999996424,193884.19999998808,2024-07-30T19:05:41.963Z,193936.4,fuDh-MbTW2,incremental,anketa,6645cf40bc81b65c5faccf1d,participant,hcpib7dulz8sbzje,,,,,Večeras je Anna nalakirala nokte.,Anna je večeras nalakirala nokte.,gf,,,49,,,
,Spremanje,canvas.Screen,2_1_2,,,,,,skipped,,193884.30000001192,,,193884.09999996424,193884.5,2024-07-30T19:05:41.963Z,193936.4,fuDh-MbTW2,incremental,anketa,6645cf40bc81b65c5faccf1d,participant,hcpib7dulz8sbzje,,,,,Večeras je Anna nalakirala nokte.,Anna je večeras nalakirala nokte.,gf,,,49,,,
,Question form,html.Form,2_1_3,,,,,,skipped,,193884.59999996424,,,193884.09999996424,193884.69999998808,2024-07-30T19:05:41.963Z,193936.4,fuDh-MbTW2,incremental,anketa,6645cf40bc81b65c5faccf1d,participant,hcpib7dulz8sbzje,,,,,Večeras je Anna nalakirala nokte.,Anna je večeras nalakirala nokte.,gf,,,49,,,
,Answer indication,canvas.Screen,2_1_4,,,,,,skipped,,193887.30000001192,,,193884.09999996424,193887.5,2024-07-30T19:05:41.966Z,193936.4,fuDh-MbTW2,incremental,anketa,6645cf40bc81b65c5faccf1d,participant,hcpib7dulz8sbzje,,,,,Večeras je Anna nalakirala nokte.,Anna je večeras nalakirala nokte.,gf,,,49,,,
,inter-stimulus,canvas.Screen,2_1_5,,,,,,response,821.4000000119267,193887.80000001192,193894.5,193936.4,194757.80000001192,194994,2024-07-30T19:05:43.072Z,195046.1,fuDh-MbTW2,incremental,anketa,6645cf40bc81b65c5faccf1d,participant,hcpib7dulz8sbzje,,,mousedown,,Večeras je Anna nalakirala nokte.,Anna je večeras nalakirala nokte.,gf,,,49,,,
,Sequence,flow.Sequence,2_1,,,,,,completion,5694.300000011921,189027.09999996424,189030.1,189063.5,194757.80000001192,194994.5,2024-07-30T19:05:43.073Z,195046.1,fuDh-MbTW2,incremental,anketa,6645cf40bc81b65c5faccf1d,participant,hcpib7dulz8sbzje,,,,,Večeras je Anna nalakirala nokte.,Anna je večeras nalakirala nokte.,gf,,,49,,,
,context,canvas.Screen,2_2_0_0,,,,,,response,1789.4999999642314,194995.09999996424,195004.1,195046.1,196835.59999996424,197085.69999998808,2024-07-30T19:05:45.164Z,197123.5,fuDh-MbTW2,incremental,anketa,6645cf40bc81b65c5faccf1d,participant,hcpib7dulz8sbzje,,,click,,Vjerojatno je tu lijepa nekad bila crkva.,Vjerojatno je tu nekad bila lijepa crkva.,lbc,,,36,,,
,Timer frame,html.Frame,2_2_0,,,,,,,2039.7999999761523,194994.80000001192,195004.1,195046.1,197085.89999997616,197086.09999996424,2024-07-30T19:05:45.165Z,197123.5,fuDh-MbTW2,incremental,anketa,6645cf40bc81b65c5faccf1d,participant,hcpib7dulz8sbzje,,,,,Vjerojatno je tu lijepa nekad bila crkva.,Vjerojatno je tu nekad bila lijepa crkva.,lbc,,,36,,,
,stimulus,canvas.Screen,2_2_1_0,,,,,,response,3867.099999964237,197086.59999996424,197090.2,197123.5,200990.59999996424,201214.69999998808,2024-07-30T19:05:49.293Z,201253.6,fuDh-MbTW2,incremental,anketa,6645cf40bc81b65c5faccf1d,participant,hcpib7dulz8sbzje,,4,click @4,,Vjerojatno je tu lijepa nekad bila crkva.,Vjerojatno je tu nekad bila lijepa crkva.,lbc,,,36,,,
,Timer frame,html.Frame,2_2_1,,,,,,,4091.599999964237,197086.30000001192,197090.2,197123.5,201215.09999996424,201215.30000001192,2024-07-30T19:05:49.294Z,201253.6,fuDh-MbTW2,incremental,anketa,6645cf40bc81b65c5faccf1d,participant,hcpib7dulz8sbzje,,,,,Vjerojatno je tu lijepa nekad bila crkva.,Vjerojatno je tu nekad bila lijepa crkva.,lbc,,,36,,,
,Spremanje,canvas.Screen,2_2_2,,,,,,skipped,,201215.39999997616,,,201215.09999996424,201215.5,2024-07-30T19:05:49.294Z,201253.6,fuDh-MbTW2,incremental,anketa,6645cf40bc81b65c5faccf1d,participant,hcpib7dulz8sbzje,,,,,Vjerojatno je tu lijepa nekad bila crkva.,Vjerojatno je tu nekad bila lijepa crkva.,lbc,,,36,,,
,Question form,html.Form,2_2_3,,,,,,skipped,,201215.59999996424,,,201215.09999996424,201215.89999997616,2024-07-30T19:05:49.294Z,201253.6,fuDh-MbTW2,incremental,anketa,6645cf40bc81b65c5faccf1d,participant,hcpib7dulz8sbzje,,,,,Vjerojatno je tu lijepa nekad bila crkva.,Vjerojatno je tu nekad bila lijepa crkva.,lbc,,,36,,,
,Answer indication,canvas.Screen,2_2_4,,,,,,skipped,,201217.89999997616,,,201215.09999996424,201218.09999996424,2024-07-30T19:05:49.297Z,201253.6,fuDh-MbTW2,incremental,anketa,6645cf40bc81b65c5faccf1d,participant,hcpib7dulz8sbzje,,,,,Vjerojatno je tu lijepa nekad bila crkva.,Vjerojatno je tu nekad bila lijepa crkva.,lbc,,,36,,,
,inter-stimulus,canvas.Screen,2_2_5,,,,,,response,863.4999999642314,201218.39999997616,201220.2,201253.6,202117.09999996424,202373.80000001192,2024-07-30T19:05:50.452Z,202413.2,fuDh-MbTW2,incremental,anketa,6645cf40bc81b65c5faccf1d,participant,hcpib7dulz8sbzje,,,mousedown,,Vjerojatno je tu lijepa nekad bila crkva.,Vjerojatno je tu nekad bila lijepa crkva.,lbc,,,36,,,
,Sequence,flow.Sequence,2_2,,,,,,completion,7070.999999964231,194994.80000001192,195004.1,195046.1,202117.09999996424,202374.39999997616,2024-07-30T19:05:50.453Z,202413.2,fuDh-MbTW2,incremental,anketa,6645cf40bc81b65c5faccf1d,participant,hcpib7dulz8sbzje,,,,,Vjerojatno je tu lijepa nekad bila crkva.,Vjerojatno je tu nekad bila lijepa crkva.,lbc,,,36,,,
,context,canvas.Screen,2_3_0_0,,,,,,response,2473.4999999880674,202375.09999996424,202379.8,202413.2,204886.69999998808,205120.89999997616,2024-07-30T19:05:53.199Z,205158.1,fuDh-MbTW2,incremental,anketa,6645cf40bc81b65c5faccf1d,participant,hcpib7dulz8sbzje,,,click,,Što mama hvali kćer koja je u školi dobila?,Mama hvali kćer koja je u školi dobila peticu.,cnp,,,11,,,
,Timer frame,html.Frame,2_3_0,,,,,,,2707.9999999880674,202374.69999998808,202379.8,202413.2,205121.19999998808,205121.39999997616,2024-07-30T19:05:53.200Z,205158.1,fuDh-MbTW2,incremental,anketa,6645cf40bc81b65c5faccf1d,participant,hcpib7dulz8sbzje,,,,,Što mama hvali kćer koja je u školi dobila?,Mama hvali kćer koja je u školi dobila peticu.,cnp,,,11,,,
,stimulus,canvas.Screen,2_3_1_0,,,,,,response,3967.200000011915,205121.89999997616,205124.7,205158.1,209125.30000001192,209352.59999996424,2024-07-30T19:05:57.431Z,209388.1,fuDh-MbTW2,incremental,anketa,6645cf40bc81b65c5faccf1d,participant,hcpib7dulz8sbzje,,1,click @1,,Što mama hvali kćer koja je u školi dobila?,Mama hvali kćer koja je u školi dobila peticu.,cnp,,,11,,,
,Timer frame,html.Frame,2_3_1,,,,,,,4194.799999976152,205121.59999996424,205124.7,205158.1,209352.89999997616,209353.09999996424,2024-07-30T19:05:57.432Z,209388.1,fuDh-MbTW2,incremental,anketa,6645cf40bc81b65c5faccf1d,participant,hcpib7dulz8sbzje,,,,,Što mama hvali kćer koja je u školi dobila?,Mama hvali kćer koja je u školi dobila peticu.,cnp,,,11,,,
,Spremanje,canvas.Screen,2_3_2,,,,,,skipped,,209353.30000001192,,,209352.89999997616,209353.39999997616,2024-07-30T19:05:57.432Z,209388.1,fuDh-MbTW2,incremental,anketa,6645cf40bc81b65c5faccf1d,participant,hcpib7dulz8sbzje,,,,,Što mama hvali kćer koja je u školi dobila?,Mama hvali kćer koja je u školi dobila peticu.,cnp,,,11,,,
,Question form,html.Form,2_3_3,,,,,,skipped,,209353.5,,,209352.89999997616,209353.59999996424,2024-07-30T19:05:57.432Z,209388.1,fuDh-MbTW2,incremental,anketa,6645cf40bc81b65c5faccf1d,participant,hcpib7dulz8sbzje,,,,,Što mama hvali kćer koja je u školi dobila?,Mama hvali kćer koja je u školi dobila peticu.,cnp,,,11,,,
,Answer indication,canvas.Screen,2_3_4,,,,,,skipped,,209355.80000001192,,,209352.89999997616,209356,2024-07-30T19:05:57.435Z,209388.1,fuDh-MbTW2,incremental,anketa,6645cf40bc81b65c5faccf1d,participant,hcpib7dulz8sbzje,,,,,Što mama hvali kćer koja je u školi dobila?,Mama hvali kćer koja je u školi dobila peticu.,cnp,,,11,,,
,inter-stimulus,canvas.Screen,2_3_5,,,,,,response,696.4999999642314,209356.09999996424,209354.8,209388.1,210084.59999996424,210333.59999996424,2024-07-30T19:05:58.412Z,210389.5,fuDh-MbTW2,incremental,anketa,6645cf40bc81b65c5faccf1d,participant,hcpib7dulz8sbzje,,,mousedown,,Što mama hvali kćer koja je u školi dobila?,Mama hvali kćer koja je u školi dobila peticu.,cnp,,,11,,,
,Sequence,flow.Sequence,2_3,,,,,,completion,7671.399999964226,202374.59999996424,202379.8,202413.2,210084.59999996424,210333.80000001192,2024-07-30T19:05:58.412Z,210389.5,fuDh-MbTW2,incremental,anketa,6645cf40bc81b65c5faccf1d,participant,hcpib7dulz8sbzje,,,,,Što mama hvali kćer koja je u školi dobila?,Mama hvali kćer koja je u školi dobila peticu.,cnp,,,11,,,
,context,canvas.Screen,2_4_0_0,,,,,,response,2206.300000011921,210334.09999996424,210347.6,210389.5,212595.80000001192,212821.89999997616,2024-07-30T19:06:00.901Z,212875.6,fuDh-MbTW2,incremental,anketa,6645cf40bc81b65c5faccf1d,participant,hcpib7dulz8sbzje,,,click,,Odakle si pješke ići prema Zadru?,Ideš pješke od Splita prema Zadru.,nf,,,44,,,
,Timer frame,html.Frame,2_4_0,,,,,,,2432.899999976158,210334,210347.6,210389.5,212822.39999997616,212822.59999996424,2024-07-30T19:06:00.901Z,212875.6,fuDh-MbTW2,incremental,anketa,6645cf40bc81b65c5faccf1d,participant,hcpib7dulz8sbzje,,,,,Odakle si pješke ići prema Zadru?,Ideš pješke od Splita prema Zadru.,nf,,,44,,,
,stimulus,canvas.Screen,2_4_1_0,,,,,,response,2273.399999999994,212823,212833.7,212875.6,215149,215374.80000001192,2024-07-30T19:06:03.453Z,,fuDh-MbTW2,incremental,anketa,6645cf40bc81b65c5faccf1d,participant,hcpib7dulz8sbzje,,1,click @1,,Odakle si pješke ići prema Zadru?,Ideš pješke od Splita prema Zadru.,nf,,,44,,,
,Timer frame,html.Frame,2_4_1,,,,,,,2499.399999999994,212822.69999998808,212833.7,212875.6,215375,215375.19999998808,2024-07-30T19:06:03.454Z,,fuDh-MbTW2,incremental,anketa,6645cf40bc81b65c5faccf1d,participant,hcpib7dulz8sbzje,,,,,Odakle si pješke ići prema Zadru?,Ideš pješke od Splita prema Zadru.,nf,,,44,,,
,Spremanje,canvas.Screen,2_4_2,,,,,,skipped,,215375.39999997616,,,215375,215375.39999997616,2024-07-30T19:06:03.454Z,,fuDh-MbTW2,incremental,anketa,6645cf40bc81b65c5faccf1d,participant,hcpib7dulz8sbzje,,,,,Odakle si pješke ići prema Zadru?,Ideš pješke od Splita prema Zadru.,nf,,,44,,,
,Question form,html.Form,2_4_3,,,,,,skipped,,215375.5,,,215375,215375.69999998808,2024-07-30T19:06:03.454Z,,fuDh-MbTW2,incremental,anketa,6645cf40bc81b65c5faccf1d,participant,hcpib7dulz8sbzje,,,,,Odakle si pješke ići prema Zadru?,Ideš pješke od Splita prema Zadru.,nf,,,44,,,
,Answer indication,canvas.Screen,2_4_4,,,,,,skipped,,215377.09999996424,,,215375,215377.19999998808,2024-07-30T19:06:03.456Z,,fuDh-MbTW2,incremental,anketa,6645cf40bc81b65c5faccf1d,participant,hcpib7dulz8sbzje,,,,,Odakle si pješke ići prema Zadru?,Ideš pješke od Splita prema Zadru.,nf,,,44,,,
,inter-stimulus,canvas.Screen,2_4_5,,,,,,response,679.8999999880907,215377.39999997616,215378.6,215478.8,216158.69999998808,216409.89999997616,2024-07-30T19:06:04.488Z,216463.4,fuDh-MbTW2,incremental,anketa,6645cf40bc81b65c5faccf1d,participant,hcpib7dulz8sbzje,,,mousedown,,Odakle si pješke ići prema Zadru?,Ideš pješke od Splita prema Zadru.,nf,,,44,,,
,Sequence,flow.Sequence,2_4,,,,,,completion,5769.199999988079,210333.89999997616,210347.6,210389.5,216158.69999998808,216410.39999997616,2024-07-30T19:06:04.489Z,216463.4,fuDh-MbTW2,incremental,anketa,6645cf40bc81b65c5faccf1d,participant,hcpib7dulz8sbzje,,,,,Odakle si pješke ići prema Zadru?,Ideš pješke od Splita prema Zadru.,nf,,,44,,,
,context,canvas.Screen,2_5_0_0,,,,,,response,4034.4000000119267,216410.89999997616,216421.6,216463.4,220497.80000001192,220731.19999998808,2024-07-30T19:06:08.810Z,220768.6,fuDh-MbTW2,incremental,anketa,6645cf40bc81b65c5faccf1d,participant,hcpib7dulz8sbzje,,,click,,"Kamo je djevojka razmišljala o slobode, idući?","Djevojka je razmišljala o slobode, idući do mora.",ai,,,23,,,
,Timer frame,html.Frame,2_5_0,,,,,,,4268.100000000006,216410.59999996424,216421.6,216463.4,220731.5,220731.59999996424,2024-07-30T19:06:08.810Z,220768.6,fuDh-MbTW2,incremental,anketa,6645cf40bc81b65c5faccf1d,participant,hcpib7dulz8sbzje,,,,,"Kamo je djevojka razmišljala o slobode, idući?","Djevojka je razmišljala o slobode, idući do mora.",ai,,,23,,,
,stimulus,canvas.Screen,2_5_1_0,,,,,,response,10315.499999964231,220732.09999996424,220735.4,220768.6,231084.09999996424,231318.39999997616,2024-07-30T19:06:19.397Z,231380.7,fuDh-MbTW2,incremental,anketa,6645cf40bc81b65c5faccf1d,participant,hcpib7dulz8sbzje,,1,click @1,,"Kamo je djevojka razmišljala o slobode, idući?","Djevojka je razmišljala o slobode, idući do mora.",ai,,,23,,,
,Timer frame,html.Frame,2_5_1,,,,,,,10550.200000011915,220731.69999998808,220735.4,220768.6,231318.80000001192,231318.89999997616,2024-07-30T19:06:19.397Z,231380.7,fuDh-MbTW2,incremental,anketa,6645cf40bc81b65c5faccf1d,participant,hcpib7dulz8sbzje,,,,,"Kamo je djevojka razmišljala o slobode, idući?","Djevojka je razmišljala o slobode, idući do mora.",ai,,,23,,,
,Spremanje,canvas.Screen,2_5_2,,,,,,skipped,,231319,,,231318.80000001192,231319.19999998808,2024-07-30T19:06:19.398Z,231380.7,fuDh-MbTW2,incremental,anketa,6645cf40bc81b65c5faccf1d,participant,hcpib7dulz8sbzje,,,,,"Kamo je djevojka razmišljala o slobode, idući?","Djevojka je razmišljala o slobode, idući do mora.",ai,,,23,,,
,Question form,html.Form,2_5_3,,,,,,skipped,,231319.30000001192,,,231318.80000001192,231319.39999997616,2024-07-30T19:06:19.398Z,231380.7,fuDh-MbTW2,incremental,anketa,6645cf40bc81b65c5faccf1d,participant,hcpib7dulz8sbzje,,,,,"Kamo je djevojka razmišljala o slobode, idući?","Djevojka je razmišljala o slobode, idući do mora.",ai,,,23,,,
,Answer indication,canvas.Screen,2_5_4,,,,,,skipped,,231321,,,231318.80000001192,231321.19999998808,2024-07-30T19:06:19.400Z,231380.7,fuDh-MbTW2,incremental,anketa,6645cf40bc81b65c5faccf1d,participant,hcpib7dulz8sbzje,,,,,"Kamo je djevojka razmišljala o slobode, idući?","Djevojka je razmišljala o slobode, idući do mora.",ai,,,23,,,
,inter-stimulus,canvas.Screen,2_5_5,,,,,,response,1172.1000000119093,231321.39999997616,231322.1,231380.7,232552.80000001192,232770.69999998808,2024-07-30T19:06:20.849Z,232824.2,fuDh-MbTW2,incremental,anketa,6645cf40bc81b65c5faccf1d,participant,hcpib7dulz8sbzje,,,mousedown,,"Kamo je djevojka razmišljala o slobode, idući?","Djevojka je razmišljala o slobode, idući do mora.",ai,,,23,,,
,Sequence,flow.Sequence,2_5,,,,,,completion,16089.400000011927,216410.59999996424,216421.6,216463.4,232552.80000001192,232771.09999996424,2024-07-30T19:06:20.850Z,232824.2,fuDh-MbTW2,incremental,anketa,6645cf40bc81b65c5faccf1d,participant,hcpib7dulz8sbzje,,,,,"Kamo je djevojka razmišljala o slobode, idući?","Djevojka je razmišljala o slobode, idući do mora.",ai,,,23,,,
,context,canvas.Screen,2_6_0_0,,,,,,response,2992.1999999761465,232771.59999996424,232782.2,232824.2,235816.39999997616,236026.69999998808,2024-07-30T19:06:24.105Z,236062.8,fuDh-MbTW2,incremental,anketa,6645cf40bc81b65c5faccf1d,participant,hcpib7dulz8sbzje,,,click,,Kakva je kraj mene biciklom prošla djevojka?,Kraj mene je biciklom prošla vrlo lijepa djevojka.,ai,,,27,,,
,Timer frame,html.Frame,2_6_0,,,,,,,3202.7999999999884,232771.30000001192,232782.2,232824.2,236027,236027.19999998808,2024-07-30T19:06:24.106Z,236062.8,fuDh-MbTW2,incremental,anketa,6645cf40bc81b65c5faccf1d,participant,hcpib7dulz8sbzje,,,,,Kakva je kraj mene biciklom prošla djevojka?,Kraj mene je biciklom prošla vrlo lijepa djevojka.,ai,,,27,,,
,stimulus,canvas.Screen,2_6_1_0,,,,,,response,3802.299999964249,236027.69999998808,236029.4,236062.8,239865.09999996424,240099.19999998808,2024-07-30T19:06:28.178Z,240152.9,fuDh-MbTW2,incremental,anketa,6645cf40bc81b65c5faccf1d,participant,hcpib7dulz8sbzje,,7,click @7,,Kakva je kraj mene biciklom prošla djevojka?,Kraj mene je biciklom prošla vrlo lijepa djevojka.,ai,,,27,,,
,Timer frame,html.Frame,2_6_1,,,,,,,4036.7000000000116,236027.30000001192,236029.4,236062.8,240099.5,240099.69999998808,2024-07-30T19:06:28.178Z,240152.9,fuDh-MbTW2,incremental,anketa,6645cf40bc81b65c5faccf1d,participant,hcpib7dulz8sbzje,,,,,Kakva je kraj mene biciklom prošla djevojka?,Kraj mene je biciklom prošla vrlo lijepa djevojka.,ai,,,27,,,
,Spremanje,canvas.Screen,2_6_2,,,,,,skipped,,240099.80000001192,,,240099.5,240099.89999997616,2024-07-30T19:06:28.178Z,240152.9,fuDh-MbTW2,incremental,anketa,6645cf40bc81b65c5faccf1d,participant,hcpib7dulz8sbzje,,,,,Kakva je kraj mene biciklom prošla djevojka?,Kraj mene je biciklom prošla vrlo lijepa djevojka.,ai,,,27,,,
,Question form,html.Form,2_6_3,,,,,,skipped,,240100,,,240099.5,240100.09999996424,2024-07-30T19:06:28.179Z,240152.9,fuDh-MbTW2,incremental,anketa,6645cf40bc81b65c5faccf1d,participant,hcpib7dulz8sbzje,,,,,Kakva je kraj mene biciklom prošla djevojka?,Kraj mene je biciklom prošla vrlo lijepa djevojka.,ai,,,27,,,
,Answer indication,canvas.Screen,2_6_4,,,,,,skipped,,240101.80000001192,,,240099.5,240102,2024-07-30T19:06:28.181Z,240152.9,fuDh-MbTW2,incremental,anketa,6645cf40bc81b65c5faccf1d,participant,hcpib7dulz8sbzje,,,,,Kakva je kraj mene biciklom prošla djevojka?,Kraj mene je biciklom prošla vrlo lijepa djevojka.,ai,,,27,,,
,inter-stimulus,canvas.Screen,2_6_5,,,,,,response,754.499999976164,240102.09999996424,240111,240152.9,240907.39999997616,241137.59999996424,2024-07-30T19:06:29.216Z,241195.7,fuDh-MbTW2,incremental,anketa,6645cf40bc81b65c5faccf1d,participant,hcpib7dulz8sbzje,,,mousedown,,Kakva je kraj mene biciklom prošla djevojka?,Kraj mene je biciklom prošla vrlo lijepa djevojka.,ai,,,27,,,
,Sequence,flow.Sequence,2_6,,,,,,completion,8083.1999999761465,232771.19999998808,232782.2,232824.2,240907.39999997616,241138.09999996424,2024-07-30T19:06:29.217Z,241195.7,fuDh-MbTW2,incremental,anketa,6645cf40bc81b65c5faccf1d,participant,hcpib7dulz8sbzje,,,,,Kakva je kraj mene biciklom prošla djevojka?,Kraj mene je biciklom prošla vrlo lijepa djevojka.,ai,,,27,,,
,context,canvas.Screen,2_7_0_0,,,,,,response,1697.1000000119093,241139,241153.9,241195.7,242892.80000001192,243144.39999997616,2024-07-30T19:06:31.223Z,243197.8,fuDh-MbTW2,incremental,anketa,6645cf40bc81b65c5faccf1d,participant,hcpib7dulz8sbzje,,,click,,U sutra ne samo svatko jedan može gledati.,Ne može svatko gledati u sutra.,nf,,,45,,,
,Timer frame,html.Frame,2_7_0,,,,,,,1948.9999999880674,241138.5,241153.9,241195.7,243144.69999998808,243144.89999997616,2024-07-30T19:06:31.223Z,243197.8,fuDh-MbTW2,incremental,anketa,6645cf40bc81b65c5faccf1d,participant,hcpib7dulz8sbzje,,,,,U sutra ne samo svatko jedan može gledati.,Ne može svatko gledati u sutra.,nf,,,45,,,
,stimulus,canvas.Screen,2_7_1_0,,,,,,response,5151.200000000012,243145.39999997616,243155.9,243197.8,248349,248548.30000001192,2024-07-30T19:06:36.627Z,248603.7,fuDh-MbTW2,incremental,anketa,6645cf40bc81b65c5faccf1d,participant,hcpib7dulz8sbzje,,1,click @1,,U sutra ne samo svatko jedan može gledati.,Ne može svatko gledati u sutra.,nf,,,45,,,
,Timer frame,html.Frame,2_7_1,,,,,,,5350.799999964249,243145.09999996424,243155.9,243197.8,248548.59999996424,248548.89999997616,2024-07-30T19:06:36.628Z,248603.7,fuDh-MbTW2,incremental,anketa,6645cf40bc81b65c5faccf1d,participant,hcpib7dulz8sbzje,,,,,U sutra ne samo svatko jedan može gledati.,Ne može svatko gledati u sutra.,nf,,,45,,,
,Spremanje,canvas.Screen,2_7_2,,,,,,skipped,,248549.19999998808,,,248548.59999996424,248549.39999997616,2024-07-30T19:06:36.628Z,248603.7,fuDh-MbTW2,incremental,anketa,6645cf40bc81b65c5faccf1d,participant,hcpib7dulz8sbzje,,,,,U sutra ne samo svatko jedan može gledati.,Ne može svatko gledati u sutra.,nf,,,45,,,
,Question form,html.Form,2_7_3,,,,,,skipped,,248549.59999996424,,,248548.59999996424,248549.69999998808,2024-07-30T19:06:36.628Z,248603.7,fuDh-MbTW2,incremental,anketa,6645cf40bc81b65c5faccf1d,participant,hcpib7dulz8sbzje,,,,,U sutra ne samo svatko jedan može gledati.,Ne može svatko gledati u sutra.,nf,,,45,,,
,Answer indication,canvas.Screen,2_7_4,,,,,,skipped,,248551.39999997616,,,248548.59999996424,248551.59999996424,2024-07-30T19:06:36.630Z,248603.7,fuDh-MbTW2,incremental,anketa,6645cf40bc81b65c5faccf1d,participant,hcpib7dulz8sbzje,,,,,U sutra ne samo svatko jedan može gledati.,Ne može svatko gledati u sutra.,nf,,,45,,,
,inter-stimulus,canvas.Screen,2_7_5,,,,,,response,888.4999999880674,248551.80000001192,248553.7,248603.7,249492.19999998808,249741.09999996424,2024-07-30T19:06:37.820Z,249763.3,fuDh-MbTW2,incremental,anketa,6645cf40bc81b65c5faccf1d,participant,hcpib7dulz8sbzje,,,mousedown,,U sutra ne samo svatko jedan može gledati.,Ne može svatko gledati u sutra.,nf,,,45,,,
,Sequence,flow.Sequence,2_7,,,,,,completion,8296.499999988067,241138.30000001192,241153.9,241195.7,249492.19999998808,249741.69999998808,2024-07-30T19:06:37.820Z,249763.3,fuDh-MbTW2,incremental,anketa,6645cf40bc81b65c5faccf1d,participant,hcpib7dulz8sbzje,,,,,U sutra ne samo svatko jedan može gledati.,Ne može svatko gledati u sutra.,nf,,,45,,,
,context,canvas.Screen,2_8_0_0,,,,,,response,1989.5999999761698,249742.39999997616,249746.6,249763.3,251752.89999997616,251988.39999997616,2024-07-30T19:06:40.067Z,252040.9,fuDh-MbTW2,incremental,anketa,6645cf40bc81b65c5faccf1d,participant,hcpib7dulz8sbzje,,,click,,"To su oni siromasi, koje je htio nahraniti i moliti se bogu..",Hoće nahraniti siromahe i moliti se bogu.,csi,42,0,6,,,
,Timer frame,html.Frame,2_8_0,,,,,,,2225.2000000000116,249742,249746.6,249763.3,251988.5,251988.80000001192,2024-07-30T19:06:40.067Z,252040.9,fuDh-MbTW2,incremental,anketa,6645cf40bc81b65c5faccf1d,participant,hcpib7dulz8sbzje,,,,,"To su oni siromasi, koje je htio nahraniti i moliti se bogu..",Hoće nahraniti siromahe i moliti se bogu.,csi,42,0,6,,,
,stimulus,canvas.Screen,2_8_1_0,,,,,,response,7954.499999976164,251989.19999998808,251999.1,252040.9,259995.39999997616,260209.80000001192,2024-07-30T19:06:48.288Z,260267,fuDh-MbTW2,incremental,anketa,6645cf40bc81b65c5faccf1d,participant,hcpib7dulz8sbzje,,6,click @6,,"To su oni siromasi, koje je htio nahraniti i moliti se bogu..",Hoće nahraniti siromahe i moliti se bogu.,csi,42,0,6,,,
,Timer frame,html.Frame,2_8_1,,,,,,,8169.199999964243,251988.89999997616,251999.1,252040.9,260210.09999996424,260210.5,2024-07-30T19:06:48.289Z,260267,fuDh-MbTW2,incremental,anketa,6645cf40bc81b65c5faccf1d,participant,hcpib7dulz8sbzje,,,,,"To su oni siromasi, koje je htio nahraniti i moliti se bogu..",Hoće nahraniti siromahe i moliti se bogu.,csi,42,0,6,,,
,Spremanje,canvas.Screen,2_8_2,,,,,,skipped,,260210.69999998808,,,260210.09999996424,260210.80000001192,2024-07-30T19:06:48.289Z,260267,fuDh-MbTW2,incremental,anketa,6645cf40bc81b65c5faccf1d,participant,hcpib7dulz8sbzje,,,,,"To su oni siromasi, koje je htio nahraniti i moliti se bogu..",Hoće nahraniti siromahe i moliti se bogu.,csi,42,0,6,,,
,Question form,html.Form,2_8_3,,,,,,skipped,,260211,,,260210.09999996424,260211.09999996424,2024-07-30T19:06:48.290Z,260267,fuDh-MbTW2,incremental,anketa,6645cf40bc81b65c5faccf1d,participant,hcpib7dulz8sbzje,,,,,"To su oni siromasi, koje je htio nahraniti i moliti se bogu..",Hoće nahraniti siromahe i moliti se bogu.,csi,42,0,6,,,
,Answer indication,canvas.Screen,2_8_4,,,,,,skipped,,260213.09999996424,,,260210.09999996424,260213.30000001192,2024-07-30T19:06:48.292Z,260267,fuDh-MbTW2,incremental,anketa,6645cf40bc81b65c5faccf1d,participant,hcpib7dulz8sbzje,,,,,"To su oni siromasi, koje je htio nahraniti i moliti se bogu..",Hoće nahraniti siromahe i moliti se bogu.,csi,42,0,6,,,
,inter-stimulus,canvas.Screen,2_8_5,,,,,,response,1597.5,260213.39999997616,260225.1,260267,261864.5,262087.69999998808,2024-07-30T19:06:50.166Z,262144.1,fuDh-MbTW2,incremental,anketa,6645cf40bc81b65c5faccf1d,participant,hcpib7dulz8sbzje,,,mousedown,,"To su oni siromasi, koje je htio nahraniti i moliti se bogu..",Hoće nahraniti siromahe i moliti se bogu.,csi,42,0,6,,,
,Sequence,flow.Sequence,2_8,,,,,,completion,12101.200000000012,249741.80000001192,249746.6,249763.3,261864.5,262088.09999996424,2024-07-30T19:06:50.167Z,262144.1,fuDh-MbTW2,incremental,anketa,6645cf40bc81b65c5faccf1d,participant,hcpib7dulz8sbzje,,,,,"To su oni siromasi, koje je htio nahraniti i moliti se bogu..",Hoće nahraniti siromahe i moliti se bogu.,csi,42,0,6,,,
,context,canvas.Screen,2_9_0_0,,,,,,response,2056.700000011944,262088.59999996424,262102.3,262144.1,264200.8000000119,264437.6999999881,2024-07-30T19:06:52.516Z,264471.6,fuDh-MbTW2,incremental,anketa,6645cf40bc81b65c5faccf1d,participant,hcpib7dulz8sbzje,,,click,,Što je Inna tri sata pročitala?,Inna je tri sata čitala zanimljiv članak.,nf,,,39,,,
,Timer frame,html.Frame,2_9_0,,,,,,,2293.9000000000233,262088.5,262102.3,262144.1,264438,264438.09999996424,2024-07-30T19:06:52.517Z,264471.6,fuDh-MbTW2,incremental,anketa,6645cf40bc81b65c5faccf1d,participant,hcpib7dulz8sbzje,,,,,Što je Inna tri sata pročitala?,Inna je tri sata čitala zanimljiv članak.,nf,,,39,,,
,stimulus,canvas.Screen,2_9_1_0,,,,,,response,3124.0999999881024,264438.6999999881,264438.4,264471.6,267595.6999999881,267815.3000000119,2024-07-30T19:06:55.894Z,267917.4,fuDh-MbTW2,incremental,anketa,6645cf40bc81b65c5faccf1d,participant,hcpib7dulz8sbzje,,2,click @2,,Što je Inna tri sata pročitala?,Inna je tri sata čitala zanimljiv članak.,nf,,,39,,,
,Timer frame,html.Frame,2_9_1,,,,,,,3343.9000000000233,264438.3000000119,264438.4,264471.6,267815.5,267815.6999999881,2024-07-30T19:06:55.894Z,267917.4,fuDh-MbTW2,incremental,anketa,6645cf40bc81b65c5faccf1d,participant,hcpib7dulz8sbzje,,,,,Što je Inna tri sata pročitala?,Inna je tri sata čitala zanimljiv članak.,nf,,,39,,,
,Spremanje,canvas.Screen,2_9_2,,,,,,skipped,,267815.8000000119,,,267815.5,267815.89999997616,2024-07-30T19:06:55.894Z,267917.4,fuDh-MbTW2,incremental,anketa,6645cf40bc81b65c5faccf1d,participant,hcpib7dulz8sbzje,,,,,Što je Inna tri sata pročitala?,Inna je tri sata čitala zanimljiv članak.,nf,,,39,,,
,Question form,html.Form,2_9_3,,,,,,skipped,,267815.89999997616,,,267815.5,267816.09999996424,2024-07-30T19:06:55.895Z,267917.4,fuDh-MbTW2,incremental,anketa,6645cf40bc81b65c5faccf1d,participant,hcpib7dulz8sbzje,,,,,Što je Inna tri sata pročitala?,Inna je tri sata čitala zanimljiv članak.,nf,,,39,,,
,Answer indication,canvas.Screen,2_9_4,,,,,,skipped,,267817.39999997616,,,267815.5,267817.59999996424,2024-07-30T19:06:55.896Z,267917.4,fuDh-MbTW2,incremental,anketa,6645cf40bc81b65c5faccf1d,participant,hcpib7dulz8sbzje,,,,,Što je Inna tri sata pročitala?,Inna je tri sata čitala zanimljiv članak.,nf,,,39,,,
,inter-stimulus,canvas.Screen,2_9_5,,,,,,response,638.2999999880558,267817.6999999881,267800.7,267917.4,268555.6999999881,268771.59999996424,2024-07-30T19:06:56.850Z,268826.8,fuDh-MbTW2,incremental,anketa,6645cf40bc81b65c5faccf1d,participant,hcpib7dulz8sbzje,,,mousedown,,Što je Inna tri sata pročitala?,Inna je tri sata čitala zanimljiv članak.,nf,,,39,,,
,Sequence,flow.Sequence,2_9,,,,,,completion,6411.599999988102,262088.39999997616,262102.3,262144.1,268555.6999999881,268772.1999999881,2024-07-30T19:06:56.851Z,268826.8,fuDh-MbTW2,incremental,anketa,6645cf40bc81b65c5faccf1d,participant,hcpib7dulz8sbzje,,,,,Što je Inna tri sata pročitala?,Inna je tri sata čitala zanimljiv članak.,nf,,,39,,,
,context,canvas.Screen,2_10_0_0,,,,,,response,1289.0000000119326,268772.5,268785,268826.8,270115.8000000119,270341.09999996424,2024-07-30T19:06:58.420Z,270395.3,fuDh-MbTW2,incremental,anketa,6645cf40bc81b65c5faccf1d,participant,hcpib7dulz8sbzje,,,click,,Čega je vidio muzej i obalu?,On je vidio muzej i obalu rijeke.,csi,0,0,1,,,2305
,Timer frame,html.Frame,2_10_0,,,,,,,1514.7000000000116,268772.3000000119,268785,268826.8,270341.5,270341.59999996424,2024-07-30T19:06:58.420Z,270395.3,fuDh-MbTW2,incremental,anketa,6645cf40bc81b65c5faccf1d,participant,hcpib7dulz8sbzje,,,,,Čega je vidio muzej i obalu?,On je vidio muzej i obalu rijeke.,csi,0,0,1,,,2305
,stimulus,canvas.Screen,2_10_1_0,,,,,,response,2039.5000000119326,270342,270336.666,270395.3,272434.8000000119,272679.59999996424,2024-07-30T19:07:00.758Z,272731.4,fuDh-MbTW2,incremental,anketa,6645cf40bc81b65c5faccf1d,participant,hcpib7dulz8sbzje,,1,click @1,,Čega je vidio muzej i obalu?,On je vidio muzej i obalu rijeke.,csi,0,0,1,,,2305
,Timer frame,html.Frame,2_10_1,,,,,,,2284.7000000000116,270341.8000000119,270336.666,270395.3,272680,272680.09999996424,2024-07-30T19:07:00.759Z,272731.4,fuDh-MbTW2,incremental,anketa,6645cf40bc81b65c5faccf1d,participant,hcpib7dulz8sbzje,,,,,Čega je vidio muzej i obalu?,On je vidio muzej i obalu rijeke.,csi,0,0,1,,,2305
,Spremanje,canvas.Screen,2_10_2,,,,,,skipped,,272680.1999999881,,,272680,272680.39999997616,2024-07-30T19:07:00.759Z,272731.4,fuDh-MbTW2,incremental,anketa,6645cf40bc81b65c5faccf1d,participant,hcpib7dulz8sbzje,,,,,Čega je vidio muzej i obalu?,On je vidio muzej i obalu rijeke.,csi,0,0,1,,,2305
,Question form,html.Form,2_10_3,,,,,,skipped,,272680.39999997616,,,272680,272680.59999996424,2024-07-30T19:07:00.759Z,272731.4,fuDh-MbTW2,incremental,anketa,6645cf40bc81b65c5faccf1d,participant,hcpib7dulz8sbzje,,,,,Čega je vidio muzej i obalu?,On je vidio muzej i obalu rijeke.,csi,0,0,1,,,2305
,Answer indication,canvas.Screen,2_10_4,,,,,,skipped,,272682.1999999881,,,272680,272682.39999997616,2024-07-30T19:07:00.761Z,272731.4,fuDh-MbTW2,incremental,anketa,6645cf40bc81b65c5faccf1d,participant,hcpib7dulz8sbzje,,,,,Čega je vidio muzej i obalu?,On je vidio muzej i obalu rijeke.,csi,0,0,1,,,2305
,inter-stimulus,canvas.Screen,2_10_5,,,,,,response,704.5999999999767,272682.5,272689.5,272731.4,273436,273669.39999997616,2024-07-30T19:07:01.748Z,273707.3,fuDh-MbTW2,incremental,anketa,6645cf40bc81b65c5faccf1d,participant,hcpib7dulz8sbzje,,,mousedown,,Čega je vidio muzej i obalu?,On je vidio muzej i obalu rijeke.,csi,0,0,1,,,2305
,Sequence,flow.Sequence,2_10,,,,,,completion,4609.200000000012,268772.3000000119,268785,268826.8,273436,273669.6999999881,2024-07-30T19:07:01.748Z,273707.3,fuDh-MbTW2,incremental,anketa,6645cf40bc81b65c5faccf1d,participant,hcpib7dulz8sbzje,,,,,Čega je vidio muzej i obalu?,On je vidio muzej i obalu rijeke.,csi,0,0,1,,,2305
,context,canvas.Screen,2_11_0_0,,,,,,response,3357.799999964249,273670.1999999881,273674,273707.3,277065.09999996424,277282.6999999881,2024-07-30T19:07:05.361Z,277319.8,fuDh-MbTW2,incremental,anketa,6645cf40bc81b65c5faccf1d,participant,hcpib7dulz8sbzje,,,click,,Prije čega dobro je da smo stigli?,Dobro je da smo stigli prije polaska vlaka.,si,,,15,,,
,Timer frame,html.Frame,2_11_0,,,,,,,3575.7000000000116,273669.89999997616,273674,273707.3,277283,277283.3000000119,2024-07-30T19:07:05.362Z,277319.8,fuDh-MbTW2,incremental,anketa,6645cf40bc81b65c5faccf1d,participant,hcpib7dulz8sbzje,,,,,Prije čega dobro je da smo stigli?,Dobro je da smo stigli prije polaska vlaka.,si,,,15,,,
,stimulus,canvas.Screen,2_11_1_0,,,,,,response,2406.8999999880907,277283.59999996424,277286.5,277319.8,279726.6999999881,279938,2024-07-30T19:07:08.017Z,279972.9,fuDh-MbTW2,incremental,anketa,6645cf40bc81b65c5faccf1d,participant,hcpib7dulz8sbzje,,4,click @4,,Prije čega dobro je da smo stigli?,Dobro je da smo stigli prije polaska vlaka.,si,,,15,,,
,Timer frame,html.Frame,2_11_1,,,,,,,2618.5000000119326,277283.39999997616,277286.5,277319.8,279938.3000000119,279938.39999997616,2024-07-30T19:07:08.017Z,279972.9,fuDh-MbTW2,incremental,anketa,6645cf40bc81b65c5faccf1d,participant,hcpib7dulz8sbzje,,,,,Prije čega dobro je da smo stigli?,Dobro je da smo stigli prije polaska vlaka.,si,,,15,,,
,Spremanje,canvas.Screen,2_11_2,,,,,,skipped,,279938.59999996424,,,279938.3000000119,279938.6999999881,2024-07-30T19:07:08.017Z,279972.9,fuDh-MbTW2,incremental,anketa,6645cf40bc81b65c5faccf1d,participant,hcpib7dulz8sbzje,,,,,Prije čega dobro je da smo stigli?,Dobro je da smo stigli prije polaska vlaka.,si,,,15,,,
,Question form,html.Form,2_11_3,,,,,,skipped,,279938.8000000119,,,279938.3000000119,279939,2024-07-30T19:07:08.017Z,279972.9,fuDh-MbTW2,incremental,anketa,6645cf40bc81b65c5faccf1d,participant,hcpib7dulz8sbzje,,,,,Prije čega dobro je da smo stigli?,Dobro je da smo stigli prije polaska vlaka.,si,,,15,,,
,Answer indication,canvas.Screen,2_11_4,,,,,,skipped,,279940,,,279938.3000000119,279940.09999996424,2024-07-30T19:07:08.019Z,279972.9,fuDh-MbTW2,incremental,anketa,6645cf40bc81b65c5faccf1d,participant,hcpib7dulz8sbzje,,,,,Prije čega dobro je da smo stigli?,Dobro je da smo stigli prije polaska vlaka.,si,,,15,,,
,inter-stimulus,canvas.Screen,2_11_5,,,,,,response,788.2999999880558,279940.3000000119,279939.5,279972.9,280761.1999999881,280984.6999999881,2024-07-30T19:07:09.063Z,281007.5,fuDh-MbTW2,incremental,anketa,6645cf40bc81b65c5faccf1d,participant,hcpib7dulz8sbzje,,,mousedown,,Prije čega dobro je da smo stigli?,Dobro je da smo stigli prije polaska vlaka.,si,,,15,,,
,Sequence,flow.Sequence,2_11,,,,,,completion,7053.899999988091,273669.8000000119,273674,273707.3,280761.1999999881,280985.09999996424,2024-07-30T19:07:09.064Z,281007.5,fuDh-MbTW2,incremental,anketa,6645cf40bc81b65c5faccf1d,participant,hcpib7dulz8sbzje,,,,,Prije čega dobro je da smo stigli?,Dobro je da smo stigli prije polaska vlaka.,si,,,15,,,
,context,canvas.Screen,2_12_0_0,,,,,,response,2407.099999964237,280985.5,280990.9,281007.5,283414.59999996424,283646.09999996424,2024-07-30T19:07:11.725Z,283752.5,fuDh-MbTW2,incremental,anketa,6645cf40bc81b65c5faccf1d,participant,hcpib7dulz8sbzje,,,click,,Što ćemo uništit i saditi vrtove?,Uništit ćemo carstva i saditi vrtove.,csi,0,0,5,,,
,Timer frame,html.Frame,2_12_0,,,,,,,2638.899999976158,280985.3000000119,280990.9,281007.5,283646.39999997616,283646.59999996424,2024-07-30T19:07:11.725Z,283752.5,fuDh-MbTW2,incremental,anketa,6645cf40bc81b65c5faccf1d,participant,hcpib7dulz8sbzje,,,,,Što ćemo uništit i saditi vrtove?,Uništit ćemo carstva i saditi vrtove.,csi,0,0,5,,,
,stimulus,canvas.Screen,2_12_1_0,,,,,,response,4284.199999988079,283647,283635.466,283752.5,288036.6999999881,288252.59999996424,2024-07-30T19:07:16.331Z,288308.3,fuDh-MbTW2,incremental,anketa,6645cf40bc81b65c5faccf1d,participant,hcpib7dulz8sbzje,,5,click @5,,Što ćemo uništit i saditi vrtove?,Uništit ćemo carstva i saditi vrtove.,csi,0,0,5,,,
,Timer frame,html.Frame,2_12_1,,,,,,,4500.300000011921,283646.8000000119,283635.466,283752.5,288252.8000000119,288253,2024-07-30T19:07:16.331Z,288308.3,fuDh-MbTW2,incremental,anketa,6645cf40bc81b65c5faccf1d,participant,hcpib7dulz8sbzje,,,,,Što ćemo uništit i saditi vrtove?,Uništit ćemo carstva i saditi vrtove.,csi,0,0,5,,,
,Spremanje,canvas.Screen,2_12_2,,,,,,skipped,,288253.09999996424,,,288252.8000000119,288253.3000000119,2024-07-30T19:07:16.332Z,288308.3,fuDh-MbTW2,incremental,anketa,6645cf40bc81b65c5faccf1d,participant,hcpib7dulz8sbzje,,,,,Što ćemo uništit i saditi vrtove?,Uništit ćemo carstva i saditi vrtove.,csi,0,0,5,,,
,Question form,html.Form,2_12_3,,,,,,skipped,,288253.3000000119,,,288252.8000000119,288253.39999997616,2024-07-30T19:07:16.332Z,288308.3,fuDh-MbTW2,incremental,anketa,6645cf40bc81b65c5faccf1d,participant,hcpib7dulz8sbzje,,,,,Što ćemo uništit i saditi vrtove?,Uništit ćemo carstva i saditi vrtove.,csi,0,0,5,,,
,Answer indication,canvas.Screen,2_12_4,,,,,,skipped,,288255.09999996424,,,288252.8000000119,288255.1999999881,2024-07-30T19:07:16.334Z,288308.3,fuDh-MbTW2,incremental,anketa,6645cf40bc81b65c5faccf1d,participant,hcpib7dulz8sbzje,,,,,Što ćemo uništit i saditi vrtove?,Uništit ćemo carstva i saditi vrtove.,csi,0,0,5,,,
,inter-stimulus,canvas.Screen,2_12_5,,,,,,response,1230.5999999761698,288255.3000000119,288266.3,288308.3,289538.89999997616,289752.5,2024-07-30T19:07:17.831Z,289810.2,fuDh-MbTW2,incremental,anketa,6645cf40bc81b65c5faccf1d,participant,hcpib7dulz8sbzje,,,mousedown,,Što ćemo uništit i saditi vrtove?,Uništit ćemo carstva i saditi vrtove.,csi,0,0,5,,,
,Sequence,flow.Sequence,2_12,,,,,,completion,8531.399999976158,280985.3000000119,280990.9,281007.5,289538.89999997616,289752.89999997616,2024-07-30T19:07:17.831Z,289810.2,fuDh-MbTW2,incremental,anketa,6645cf40bc81b65c5faccf1d,participant,hcpib7dulz8sbzje,,,,,Što ćemo uništit i saditi vrtove?,Uništit ćemo carstva i saditi vrtove.,csi,0,0,5,,,
,context,canvas.Screen,2_13_0_0,,,,,,response,1914.4999999880674,289753.39999997616,289768.3,289810.2,291724.6999999881,291930.09999996424,2024-07-30T19:07:20.009Z,291946,fuDh-MbTW2,incremental,anketa,6645cf40bc81b65c5faccf1d,participant,hcpib7dulz8sbzje,,,click,,"Što je on plakao, čitajući?","On je plakao, čitajući knjigu.",ai,,,22,,,
,Timer frame,html.Frame,2_13_0,,,,,,,2119.9999999880674,289753.1999999881,289768.3,289810.2,291930.1999999881,291930.39999997616,2024-07-30T19:07:20.009Z,291946,fuDh-MbTW2,incremental,anketa,6645cf40bc81b65c5faccf1d,participant,hcpib7dulz8sbzje,,,,,"Što je on plakao, čitajući?","On je plakao, čitajući knjigu.",ai,,,22,,,
,stimulus,canvas.Screen,2_13_1_0,,,,,,response,3216.399999976158,291930.6999999881,291912.766,291946,295162.39999997616,295370,2024-07-30T19:07:23.448Z,295425.5,fuDh-MbTW2,incremental,anketa,6645cf40bc81b65c5faccf1d,participant,hcpib7dulz8sbzje,,1,click @1,,"Što je on plakao, čitajući?","On je plakao, čitajući knjigu.",ai,,,22,,,
,Timer frame,html.Frame,2_13_1,,,,,,,3424.199999988079,291930.39999997616,291912.766,291946,295370.1999999881,295370.3000000119,2024-07-30T19:07:23.449Z,295425.5,fuDh-MbTW2,incremental,anketa,6645cf40bc81b65c5faccf1d,participant,hcpib7dulz8sbzje,,,,,"Što je on plakao, čitajući?","On je plakao, čitajući knjigu.",ai,,,22,,,
,Spremanje,canvas.Screen,2_13_2,,,,,,skipped,,295370.5,,,295370.1999999881,295370.59999996424,2024-07-30T19:07:23.449Z,295425.5,fuDh-MbTW2,incremental,anketa,6645cf40bc81b65c5faccf1d,participant,hcpib7dulz8sbzje,,,,,"Što je on plakao, čitajući?","On je plakao, čitajući knjigu.",ai,,,22,,,
,Question form,html.Form,2_13_3,,,,,,skipped,,295370.59999996424,,,295370.1999999881,295370.6999999881,2024-07-30T19:07:23.449Z,295425.5,fuDh-MbTW2,incremental,anketa,6645cf40bc81b65c5faccf1d,participant,hcpib7dulz8sbzje,,,,,"Što je on plakao, čitajući?","On je plakao, čitajući knjigu.",ai,,,22,,,
,Answer indication,canvas.Screen,2_13_4,,,,,,skipped,,295371.89999997616,,,295370.1999999881,295371.89999997616,2024-07-30T19:07:23.451Z,295425.5,fuDh-MbTW2,incremental,anketa,6645cf40bc81b65c5faccf1d,participant,hcpib7dulz8sbzje,,,,,"Što je on plakao, čitajući?","On je plakao, čitajući knjigu.",ai,,,22,,,
,inter-stimulus,canvas.Screen,2_13_5,,,,,,response,1931.199999988079,295372.09999996424,295383.7,295425.5,297356.6999999881,297624.6999999881,2024-07-30T19:07:25.703Z,297678.4,fuDh-MbTW2,incremental,anketa,6645cf40bc81b65c5faccf1d,participant,hcpib7dulz8sbzje,,,mousedown,,"Što je on plakao, čitajući?","On je plakao, čitajući knjigu.",ai,,,22,,,
,Sequence,flow.Sequence,2_13,,,,,,completion,7546.499999988067,289753.09999996424,289768.3,289810.2,297356.6999999881,297625.1999999881,2024-07-30T19:07:25.704Z,297678.4,fuDh-MbTW2,incremental,anketa,6645cf40bc81b65c5faccf1d,participant,hcpib7dulz8sbzje,,,,,"Što je on plakao, čitajući?","On je plakao, čitajući knjigu.",ai,,,22,,,
,context,canvas.Screen,2_14_0_0,,,,,,response,1931.4999999761349,297625.6999999881,297636.5,297678.4,299609.89999997616,299825.39999997616,2024-07-30T19:07:27.904Z,299881,fuDh-MbTW2,incremental,anketa,6645cf40bc81b65c5faccf1d,participant,hcpib7dulz8sbzje,,,click,,Vidimo plažu daleko od koje smo bili.,Vidimo plažu od koje smo bili daleko.,ai,,,24,,,
,Timer frame,html.Frame,2_14_0,,,,,,,2147.199999964214,297625.39999997616,297636.5,297678.4,299825.59999996424,299825.8000000119,2024-07-30T19:07:27.904Z,299881,fuDh-MbTW2,incremental,anketa,6645cf40bc81b65c5faccf1d,participant,hcpib7dulz8sbzje,,,,,Vidimo plažu daleko od koje smo bili.,Vidimo plažu od koje smo bili daleko.,ai,,,24,,,
,stimulus,canvas.Screen,2_14_1_0,,,,,,response,4083.599999964237,299826.09999996424,299839.2,299881,303964.59999996424,304200,2024-07-30T19:07:32.279Z,304235.9,fuDh-MbTW2,incremental,anketa,6645cf40bc81b65c5faccf1d,participant,hcpib7dulz8sbzje,,7,click @7,,Vidimo plažu daleko od koje smo bili.,Vidimo plažu od koje smo bili daleko.,ai,,,24,,,
,Timer frame,html.Frame,2_14_1,,,,,,,4319.300000011921,299825.89999997616,299839.2,299881,304200.3000000119,304200.39999997616,2024-07-30T19:07:32.279Z,304235.9,fuDh-MbTW2,incremental,anketa,6645cf40bc81b65c5faccf1d,participant,hcpib7dulz8sbzje,,,,,Vidimo plažu daleko od koje smo bili.,Vidimo plažu od koje smo bili daleko.,ai,,,24,,,
,Spremanje,canvas.Screen,2_14_2,,,,,,skipped,,304200.5,,,304200.3000000119,304200.6999999881,2024-07-30T19:07:32.279Z,304235.9,fuDh-MbTW2,incremental,anketa,6645cf40bc81b65c5faccf1d,participant,hcpib7dulz8sbzje,,,,,Vidimo plažu daleko od koje smo bili.,Vidimo plažu od koje smo bili daleko.,ai,,,24,,,
,Question form,html.Form,2_14_3,,,,,,skipped,,304200.6999999881,,,304200.3000000119,304200.89999997616,2024-07-30T19:07:32.279Z,304235.9,fuDh-MbTW2,incremental,anketa,6645cf40bc81b65c5faccf1d,participant,hcpib7dulz8sbzje,,,,,Vidimo plažu daleko od koje smo bili.,Vidimo plažu od koje smo bili daleko.,ai,,,24,,,
,Answer indication,canvas.Screen,2_14_4,,,,,,skipped,,304202.59999996424,,,304200.3000000119,304202.6999999881,2024-07-30T19:07:32.281Z,304235.9,fuDh-MbTW2,incremental,anketa,6645cf40bc81b65c5faccf1d,participant,hcpib7dulz8sbzje,,,,,Vidimo plažu daleko od koje smo bili.,Vidimo plažu od koje smo bili daleko.,ai,,,24,,,
,inter-stimulus,canvas.Screen,2_14_5,,,,,,response,27039.900000011898,304202.89999997616,304185.766,304235.9,331275.8000000119,331505.39999997616,2024-07-30T19:07:59.584Z,331530.6,fuDh-MbTW2,incremental,anketa,6645cf40bc81b65c5faccf1d,participant,hcpib7dulz8sbzje,,,mousedown,,Vidimo plažu daleko od koje smo bili.,Vidimo plažu od koje smo bili daleko.,ai,,,24,,,
,Sequence,flow.Sequence,2_14,,,,,,completion,33597.4000000119,297625.3000000119,297636.5,297678.4,331275.8000000119,331506,2024-07-30T19:07:59.585Z,331530.6,fuDh-MbTW2,incremental,anketa,6645cf40bc81b65c5faccf1d,participant,hcpib7dulz8sbzje,,,,,Vidimo plažu daleko od koje smo bili.,Vidimo plažu od koje smo bili daleko.,ai,,,24,,,
,context,canvas.Screen,2_15_0_0,,,,,,response,1914.2000000119442,331506.6999999881,331513.9,331530.6,333444.8000000119,333670.39999997616,2024-07-30T19:08:01.749Z,333707.9,fuDh-MbTW2,incremental,anketa,6645cf40bc81b65c5faccf1d,participant,hcpib7dulz8sbzje,,,click,,Kolike su trenutno plaće u hrvatskom sportu?,Kolike plaće su trenutno u hrvatskom sportu?,lbc,,,35,,,
,Timer frame,html.Frame,2_15_0,,,,,,,2139.9999999642605,331506.39999997616,331513.9,331530.6,333670.59999996424,333670.8000000119,2024-07-30T19:08:01.749Z,333707.9,fuDh-MbTW2,incremental,anketa,6645cf40bc81b65c5faccf1d,participant,hcpib7dulz8sbzje,,,,,Kolike su trenutno plaće u hrvatskom sportu?,Kolike plaće su trenutno u hrvatskom sportu?,lbc,,,35,,,
,stimulus,canvas.Screen,2_15_1_0,,,,,,response,2097.4000000118976,333671.1999999881,333657.9,333707.9,335805.3000000119,336028.59999996424,2024-07-30T19:08:04.107Z,336085.3,fuDh-MbTW2,incremental,anketa,6645cf40bc81b65c5faccf1d,participant,hcpib7dulz8sbzje,,7,click @7,,Kolike su trenutno plaće u hrvatskom sportu?,Kolike plaće su trenutno u hrvatskom sportu?,lbc,,,35,,,
,Timer frame,html.Frame,2_15_1,,,,,,,2321.0999999999767,333671,333657.9,333707.9,336029,336029.1999999881,2024-07-30T19:08:04.108Z,336085.3,fuDh-MbTW2,incremental,anketa,6645cf40bc81b65c5faccf1d,participant,hcpib7dulz8sbzje,,,,,Kolike su trenutno plaće u hrvatskom sportu?,Kolike plaće su trenutno u hrvatskom sportu?,lbc,,,35,,,
,Spremanje,canvas.Screen,2_15_2,,,,,,skipped,,336029.39999997616,,,336029,336029.5,2024-07-30T19:08:04.108Z,336085.3,fuDh-MbTW2,incremental,anketa,6645cf40bc81b65c5faccf1d,participant,hcpib7dulz8sbzje,,,,,Kolike su trenutno plaće u hrvatskom sportu?,Kolike plaće su trenutno u hrvatskom sportu?,lbc,,,35,,,
,Question form,html.Form,2_15_3,,,,,,skipped,,336029.59999996424,,,336029,336029.6999999881,2024-07-30T19:08:04.108Z,336085.3,fuDh-MbTW2,incremental,anketa,6645cf40bc81b65c5faccf1d,participant,hcpib7dulz8sbzje,,,,,Kolike su trenutno plaće u hrvatskom sportu?,Kolike plaće su trenutno u hrvatskom sportu?,lbc,,,35,,,
,Answer indication,canvas.Screen,2_15_4,,,,,,skipped,,336031.8000000119,,,336029,336032,2024-07-30T19:08:04.110Z,336085.3,fuDh-MbTW2,incremental,anketa,6645cf40bc81b65c5faccf1d,participant,hcpib7dulz8sbzje,,,,,Kolike su trenutno plaće u hrvatskom sportu?,Kolike plaće su trenutno u hrvatskom sportu?,lbc,,,35,,,
,inter-stimulus,canvas.Screen,2_15_5,,,,,,response,787.8999999880907,336032.09999996424,336026.7,336085.3,336873.1999999881,337087.39999997616,2024-07-30T19:08:05.166Z,337144.6,fuDh-MbTW2,incremental,anketa,6645cf40bc81b65c5faccf1d,participant,hcpib7dulz8sbzje,,,mousedown,,Kolike su trenutno plaće u hrvatskom sportu?,Kolike plaće su trenutno u hrvatskom sportu?,lbc,,,35,,,
,Sequence,flow.Sequence,2_15,,,,,,completion,5342.599999988102,331506.1999999881,331513.9,331530.6,336873.1999999881,337088,2024-07-30T19:08:05.166Z,337144.6,fuDh-MbTW2,incremental,anketa,6645cf40bc81b65c5faccf1d,participant,hcpib7dulz8sbzje,,,,,Kolike su trenutno plaće u hrvatskom sportu?,Kolike plaće su trenutno u hrvatskom sportu?,lbc,,,35,,,
,context,canvas.Screen,2_16_0_0,,,,,,response,4775.200000011944,337088.39999997616,337102.8,337144.6,341919.8000000119,342121.09999996424,2024-07-30T19:08:10.200Z,342149.4,fuDh-MbTW2,incremental,anketa,6645cf40bc81b65c5faccf1d,participant,hcpib7dulz8sbzje,,,click,,"Što žele da Ivan pripremi, a Nikola da posprema kuću??","Žele da Ivan pripremi juhu, a Nikola da posprema kuću..",csi,26,27,3,,,
,Timer frame,html.Frame,2_16_0,,,,,,,4976.799999976181,337088.1999999881,337102.8,337144.6,342121.39999997616,342121.6999999881,2024-07-30T19:08:10.200Z,342149.4,fuDh-MbTW2,incremental,anketa,6645cf40bc81b65c5faccf1d,participant,hcpib7dulz8sbzje,,,,,"Što žele da Ivan pripremi, a Nikola da posprema kuću??","Žele da Ivan pripremi juhu, a Nikola da posprema kuću..",csi,26,27,3,,,
,stimulus,canvas.Screen,2_16_1_0,,,,,,response,3257.0999999999767,342122.1999999881,342132.8,342149.4,345406.5,345616.1999999881,2024-07-30T19:08:13.695Z,345719.4,fuDh-MbTW2,incremental,anketa,6645cf40bc81b65c5faccf1d,participant,hcpib7dulz8sbzje,,3,click @3,,"Što žele da Ivan pripremi, a Nikola da posprema kuću??","Žele da Ivan pripremi juhu, a Nikola da posprema kuću..",csi,26,27,3,,,
,Timer frame,html.Frame,2_16_1,,,,,,,3466.999999976135,342121.89999997616,342132.8,342149.4,345616.39999997616,345616.6999999881,2024-07-30T19:08:13.695Z,345719.4,fuDh-MbTW2,incremental,anketa,6645cf40bc81b65c5faccf1d,participant,hcpib7dulz8sbzje,,,,,"Što žele da Ivan pripremi, a Nikola da posprema kuću??","Žele da Ivan pripremi juhu, a Nikola da posprema kuću..",csi,26,27,3,,,
,Spremanje,canvas.Screen,2_16_2,,,,,,skipped,,345616.8000000119,,,345616.39999997616,345617,2024-07-30T19:08:13.696Z,345719.4,fuDh-MbTW2,incremental,anketa,6645cf40bc81b65c5faccf1d,participant,hcpib7dulz8sbzje,,,,,"Što žele da Ivan pripremi, a Nikola da posprema kuću??","Žele da Ivan pripremi juhu, a Nikola da posprema kuću..",csi,26,27,3,,,
,Question form,html.Form,2_16_3,,,,,,skipped,,345617.1999999881,,,345616.39999997616,345617.3000000119,2024-07-30T19:08:13.696Z,345719.4,fuDh-MbTW2,incremental,anketa,6645cf40bc81b65c5faccf1d,participant,hcpib7dulz8sbzje,,,,,"Što žele da Ivan pripremi, a Nikola da posprema kuću??","Žele da Ivan pripremi juhu, a Nikola da posprema kuću..",csi,26,27,3,,,
,Answer indication,canvas.Screen,2_16_4,,,,,,skipped,,345619,,,345616.39999997616,345619.39999997616,2024-07-30T19:08:13.698Z,345719.4,fuDh-MbTW2,incremental,anketa,6645cf40bc81b65c5faccf1d,participant,hcpib7dulz8sbzje,,,,,"Što žele da Ivan pripremi, a Nikola da posprema kuću??","Žele da Ivan pripremi juhu, a Nikola da posprema kuću..",csi,26,27,3,,,
,inter-stimulus,canvas.Screen,2_16_5,,,,,,response,855.2999999880558,345619.5,345619.3,345719.4,346574.6999999881,346790.5,2024-07-30T19:08:14.869Z,346828.8,fuDh-MbTW2,incremental,anketa,6645cf40bc81b65c5faccf1d,participant,hcpib7dulz8sbzje,,,mousedown,,"Što žele da Ivan pripremi, a Nikola da posprema kuću??","Žele da Ivan pripremi juhu, a Nikola da posprema kuću..",csi,26,27,3,,,
,Sequence,flow.Sequence,2_16,,,,,,completion,9430.099999988102,337088.09999996424,337102.8,337144.6,346574.6999999881,346791,2024-07-30T19:08:14.870Z,346828.8,fuDh-MbTW2,incremental,anketa,6645cf40bc81b65c5faccf1d,participant,hcpib7dulz8sbzje,,,,,"Što žele da Ivan pripremi, a Nikola da posprema kuću??","Žele da Ivan pripremi juhu, a Nikola da posprema kuću..",csi,26,27,3,,,
,context,canvas.Screen,2_17_0_0,,,,,,response,1939.2999999642489,346791.59999996424,346795.4,346828.8,348768.09999996424,348999.59999996424,2024-07-30T19:08:17.078Z,349039.7,fuDh-MbTW2,incremental,anketa,6645cf40bc81b65c5faccf1d,participant,hcpib7dulz8sbzje,,,click,,Čega si gledao prepričavanje?,Gledao si prepričavanje filma.,di,,,31,,,
,Timer frame,html.Frame,2_17_0,,,,,,,2171.09999997617,346791.3000000119,346795.4,346828.8,348999.89999997616,349000.09999996424,2024-07-30T19:08:17.079Z,349039.7,fuDh-MbTW2,incremental,anketa,6645cf40bc81b65c5faccf1d,participant,hcpib7dulz8sbzje,,,,,Čega si gledao prepričavanje?,Gledao si prepričavanje filma.,di,,,31,,,
,stimulus,canvas.Screen,2_17_1_0,,,,,,response,2248.1000000119093,349000.6999999881,349006.3,349039.7,351287.8000000119,351500.8000000119,2024-07-30T19:08:19.579Z,351526.2,fuDh-MbTW2,incremental,anketa,6645cf40bc81b65c5faccf1d,participant,hcpib7dulz8sbzje,,7,click @7,,Čega si gledao prepričavanje?,Gledao si prepričavanje filma.,di,,,31,,,
,Timer frame,html.Frame,2_17_1,,,,,,,2461.3999999642256,349000.3000000119,349006.3,349039.7,351501.09999996424,351501.5,2024-07-30T19:08:19.580Z,351526.2,fuDh-MbTW2,incremental,anketa,6645cf40bc81b65c5faccf1d,participant,hcpib7dulz8sbzje,,,,,Čega si gledao prepričavanje?,Gledao si prepričavanje filma.,di,,,31,,,
,Spremanje,canvas.Screen,2_17_2,,,,,,skipped,,351501.6999999881,,,351501.09999996424,351501.8000000119,2024-07-30T19:08:19.580Z,351526.2,fuDh-MbTW2,incremental,anketa,6645cf40bc81b65c5faccf1d,participant,hcpib7dulz8sbzje,,,,,Čega si gledao prepričavanje?,Gledao si prepričavanje filma.,di,,,31,,,
,Question form,html.Form,2_17_3,,,,,,skipped,,351502,,,351501.09999996424,351502.09999996424,2024-07-30T19:08:19.581Z,351526.2,fuDh-MbTW2,incremental,anketa,6645cf40bc81b65c5faccf1d,participant,hcpib7dulz8sbzje,,,,,Čega si gledao prepričavanje?,Gledao si prepričavanje filma.,di,,,31,,,
,Answer indication,canvas.Screen,2_17_4,,,,,,skipped,,351504.1999999881,,,351501.09999996424,351504.3000000119,2024-07-30T19:08:19.583Z,351526.2,fuDh-MbTW2,incremental,anketa,6645cf40bc81b65c5faccf1d,participant,hcpib7dulz8sbzje,,,,,Čega si gledao prepričavanje?,Gledao si prepričavanje filma.,di,,,31,,,
,inter-stimulus,canvas.Screen,2_17_5,,,,,,response,612.6999999761465,351504.5,351509.5,351526.2,352138.89999997616,352381.6999999881,2024-07-30T19:08:20.460Z,352410.4,fuDh-MbTW2,incremental,anketa,6645cf40bc81b65c5faccf1d,participant,hcpib7dulz8sbzje,,,mousedown,,Čega si gledao prepričavanje?,Gledao si prepričavanje filma.,di,,,31,,,
,Sequence,flow.Sequence,2_17,,,,,,completion,5310.09999997617,346791.1999999881,346795.4,346828.8,352138.89999997616,352382.39999997616,2024-07-30T19:08:20.461Z,352410.4,fuDh-MbTW2,incremental,anketa,6645cf40bc81b65c5faccf1d,participant,hcpib7dulz8sbzje,,,,,Čega si gledao prepričavanje?,Gledao si prepričavanje filma.,di,,,31,,,
,context,canvas.Screen,2_18_0_0,,,,,,response,1389.199999964214,352382.89999997616,352393.8,352410.4,353799.59999996424,354021.59999996424,2024-07-30T19:08:22.100Z,354046.1,fuDh-MbTW2,incremental,anketa,6645cf40bc81b65c5faccf1d,participant,hcpib7dulz8sbzje,,,click,,O čemu je Ivo cijelu večer pričao?,Ivo je cijelu večer pričao o autima.,gf,,,47,,,
,Timer frame,html.Frame,2_18_0,,,,,,,1611.4999999761349,352382.6999999881,352393.8,352410.4,354021.89999997616,354022,2024-07-30T19:08:22.101Z,354046.1,fuDh-MbTW2,incremental,anketa,6645cf40bc81b65c5faccf1d,participant,hcpib7dulz8sbzje,,,,,O čemu je Ivo cijelu večer pričao?,Ivo je cijelu večer pričao o autima.,gf,,,47,,,
,stimulus,canvas.Screen,2_18_1_0,,,,,,response,2198.5999999881024,354022.59999996424,354029.4,354046.1,356244.6999999881,356485.1999999881,2024-07-30T19:08:24.564Z,356532.7,fuDh-MbTW2,incremental,anketa,6645cf40bc81b65c5faccf1d,participant,hcpib7dulz8sbzje,,7,click @7,,O čemu je Ivo cijelu večer pričao?,Ivo je cijelu večer pričao o autima.,gf,,,47,,,
,Timer frame,html.Frame,2_18_1,,,,,,,2439.200000011944,354022.1999999881,354029.4,354046.1,356485.3000000119,356485.59999996424,2024-07-30T19:08:24.564Z,356532.7,fuDh-MbTW2,incremental,anketa,6645cf40bc81b65c5faccf1d,participant,hcpib7dulz8sbzje,,,,,O čemu je Ivo cijelu večer pričao?,Ivo je cijelu večer pričao o autima.,gf,,,47,,,
,Spremanje,canvas.Screen,2_18_2,,,,,,skipped,,356485.59999996424,,,356485.3000000119,356485.8000000119,2024-07-30T19:08:24.564Z,356532.7,fuDh-MbTW2,incremental,anketa,6645cf40bc81b65c5faccf1d,participant,hcpib7dulz8sbzje,,,,,O čemu je Ivo cijelu večer pričao?,Ivo je cijelu večer pričao o autima.,gf,,,47,,,
,Question form,html.Form,2_18_3,,,,,,skipped,,356485.8000000119,,,356485.3000000119,356485.89999997616,2024-07-30T19:08:24.564Z,356532.7,fuDh-MbTW2,incremental,anketa,6645cf40bc81b65c5faccf1d,participant,hcpib7dulz8sbzje,,,,,O čemu je Ivo cijelu večer pričao?,Ivo je cijelu večer pričao o autima.,gf,,,47,,,
,Answer indication,canvas.Screen,2_18_4,,,,,,skipped,,356487.3000000119,,,356485.3000000119,356487.39999997616,2024-07-30T19:08:24.566Z,356532.7,fuDh-MbTW2,incremental,anketa,6645cf40bc81b65c5faccf1d,participant,hcpib7dulz8sbzje,,,,,O čemu je Ivo cijelu večer pričao?,Ivo je cijelu večer pričao o autima.,gf,,,47,,,
,inter-stimulus,canvas.Screen,2_18_5,,,,,,response,596.1000000119093,356487.59999996424,356482.6,356532.7,357128.8000000119,357387.3000000119,2024-07-30T19:08:25.466Z,357442.1,fuDh-MbTW2,incremental,anketa,6645cf40bc81b65c5faccf1d,participant,hcpib7dulz8sbzje,,,mousedown,,O čemu je Ivo cijelu večer pričao?,Ivo je cijelu večer pričao o autima.,gf,,,47,,,
,Sequence,flow.Sequence,2_18,,,,,,completion,4718.400000011898,352382.5,352393.8,352410.4,357128.8000000119,357387.8000000119,2024-07-30T19:08:25.466Z,357442.1,fuDh-MbTW2,incremental,anketa,6645cf40bc81b65c5faccf1d,participant,hcpib7dulz8sbzje,,,,,O čemu je Ivo cijelu večer pričao?,Ivo je cijelu večer pričao o autima.,gf,,,47,,,
,context,canvas.Screen,2_19_0_0,,,,,,response,1297.0999999881024,357388.3000000119,357400.3,357442.1,358739.1999999881,358964.3000000119,2024-07-30T19:08:27.043Z,359010.9,fuDh-MbTW2,incremental,anketa,6645cf40bc81b65c5faccf1d,participant,hcpib7dulz8sbzje,,,click,,Za kim su banditi imali pitanja?,Ti banditi su imali pitanja za mene.,nf,,,40,,,
,Timer frame,html.Frame,2_19_0,,,,,,,1522.4999999642605,357388.09999996424,357400.3,357442.1,358964.59999996424,358964.6999999881,2024-07-30T19:08:27.043Z,359010.9,fuDh-MbTW2,incremental,anketa,6645cf40bc81b65c5faccf1d,participant,hcpib7dulz8sbzje,,,,,Za kim su banditi imali pitanja?,Ti banditi su imali pitanja za mene.,nf,,,40,,,
,stimulus,canvas.Screen,2_19_1_0,,,,,,response,5226.199999964214,358965,358977.5,359010.9,364237.09999996424,364461,2024-07-30T19:08:32.540Z,364483.7,fuDh-MbTW2,incremental,anketa,6645cf40bc81b65c5faccf1d,participant,hcpib7dulz8sbzje,,1,click @1,,Za kim su banditi imali pitanja?,Ti banditi su imali pitanja za mene.,nf,,,40,,,
,Timer frame,html.Frame,2_19_1,,,,,,,5450.400000011898,358964.8000000119,358977.5,359010.9,364461.3000000119,364461.5,2024-07-30T19:08:32.540Z,364483.7,fuDh-MbTW2,incremental,anketa,6645cf40bc81b65c5faccf1d,participant,hcpib7dulz8sbzje,,,,,Za kim su banditi imali pitanja?,Ti banditi su imali pitanja za mene.,nf,,,40,,,
,Spremanje,canvas.Screen,2_19_2,,,,,,skipped,,364461.8000000119,,,364461.3000000119,364461.89999997616,2024-07-30T19:08:32.540Z,364483.7,fuDh-MbTW2,incremental,anketa,6645cf40bc81b65c5faccf1d,participant,hcpib7dulz8sbzje,,,,,Za kim su banditi imali pitanja?,Ti banditi su imali pitanja za mene.,nf,,,40,,,
,Question form,html.Form,2_19_3,,,,,,skipped,,364462,,,364461.3000000119,364462.1999999881,2024-07-30T19:08:32.541Z,364483.7,fuDh-MbTW2,incremental,anketa,6645cf40bc81b65c5faccf1d,participant,hcpib7dulz8sbzje,,,,,Za kim su banditi imali pitanja?,Ti banditi su imali pitanja za mene.,nf,,,40,,,
,Answer indication,canvas.Screen,2_19_4,,,,,,skipped,,364464,,,364461.3000000119,364464.1999999881,2024-07-30T19:08:32.543Z,364483.7,fuDh-MbTW2,incremental,anketa,6645cf40bc81b65c5faccf1d,participant,hcpib7dulz8sbzje,,,,,Za kim su banditi imali pitanja?,Ti banditi su imali pitanja za mene.,nf,,,40,,,
,inter-stimulus,canvas.Screen,2_19_5,,,,,,response,654.8999999642256,364464.5,364467.1,364483.7,365138.59999996424,365395.3000000119,2024-07-30T19:08:33.474Z,365426.3,fuDh-MbTW2,incremental,anketa,6645cf40bc81b65c5faccf1d,participant,hcpib7dulz8sbzje,,,mousedown,,Za kim su banditi imali pitanja?,Ti banditi su imali pitanja za mene.,nf,,,40,,,
,Sequence,flow.Sequence,2_19,,,,,,completion,7696.4999999642605,357388,357400.3,357442.1,365138.59999996424,365396,2024-07-30T19:08:33.475Z,365426.3,fuDh-MbTW2,incremental,anketa,6645cf40bc81b65c5faccf1d,participant,hcpib7dulz8sbzje,,,,,Za kim su banditi imali pitanja?,Ti banditi su imali pitanja za mene.,nf,,,40,,,
,context,canvas.Screen,2_20_0_0,,,,,,response,3199.5000000119326,365396.5,365409.7,365426.3,368625.8000000119,368843.5,2024-07-30T19:08:36.922Z,368863.6,fuDh-MbTW2,incremental,anketa,6645cf40bc81b65c5faccf1d,participant,hcpib7dulz8sbzje,,,click,,Za koliko novca nevjerojatno je da je Goran prodao svoj stan??,Ono da je Goran prodao svoj stan za toliki novac nevjerojatno je..,si,31,32,18,,,
,Timer frame,html.Frame,2_20_0,,,,,,,3417.59999997617,365396.1999999881,365409.7,365426.3,368843.89999997616,368844,2024-07-30T19:08:36.923Z,368863.6,fuDh-MbTW2,incremental,anketa,6645cf40bc81b65c5faccf1d,participant,hcpib7dulz8sbzje,,,,,Za koliko novca nevjerojatno je da je Goran prodao svoj stan??,Ono da je Goran prodao svoj stan za toliki novac nevjerojatno je..,si,31,32,18,,,
,stimulus,canvas.Screen,2_20_1_0,,,,,,response,6477.9999999642605,368844.39999997616,368846.9,368863.6,375341.59999996424,375547,2024-07-30T19:08:43.625Z,375571.6,fuDh-MbTW2,incremental,anketa,6645cf40bc81b65c5faccf1d,participant,hcpib7dulz8sbzje,,3,click @3,,Za koliko novca nevjerojatno je da je Goran prodao svoj stan??,Ono da je Goran prodao svoj stan za toliki novac nevjerojatno je..,si,31,32,18,,,
,Timer frame,html.Frame,2_20_1,,,,,,,6683.4999999642605,368844.1999999881,368846.9,368863.6,375547.09999996424,375547.1999999881,2024-07-30T19:08:43.626Z,375571.6,fuDh-MbTW2,incremental,anketa,6645cf40bc81b65c5faccf1d,participant,hcpib7dulz8sbzje,,,,,Za koliko novca nevjerojatno je da je Goran prodao svoj stan??,Ono da je Goran prodao svoj stan za toliki novac nevjerojatno je..,si,31,32,18,,,
,Spremanje,canvas.Screen,2_20_2,,,,,,skipped,,375547.1999999881,,,375547.09999996424,375547.39999997616,2024-07-30T19:08:43.626Z,375571.6,fuDh-MbTW2,incremental,anketa,6645cf40bc81b65c5faccf1d,participant,hcpib7dulz8sbzje,,,,,Za koliko novca nevjerojatno je da je Goran prodao svoj stan??,Ono da je Goran prodao svoj stan za toliki novac nevjerojatno je..,si,31,32,18,,,
,Question form,html.Form,2_20_3,,,,,,skipped,,375547.39999997616,,,375547.09999996424,375547.59999996424,2024-07-30T19:08:43.626Z,375571.6,fuDh-MbTW2,incremental,anketa,6645cf40bc81b65c5faccf1d,participant,hcpib7dulz8sbzje,,,,,Za koliko novca nevjerojatno je da je Goran prodao svoj stan??,Ono da je Goran prodao svoj stan za toliki novac nevjerojatno je..,si,31,32,18,,,
,Answer indication,canvas.Screen,2_20_4,,,,,,skipped,,375548.3000000119,,,375547.09999996424,375548.39999997616,2024-07-30T19:08:43.627Z,375571.6,fuDh-MbTW2,incremental,anketa,6645cf40bc81b65c5faccf1d,participant,hcpib7dulz8sbzje,,,,,Za koliko novca nevjerojatno je da je Goran prodao svoj stan??,Ono da je Goran prodao svoj stan za toliki novac nevjerojatno je..,si,31,32,18,,,
,inter-stimulus,canvas.Screen,2_20_5,,,,,,response,721.5999999881024,375548.39999997616,375554.9,375571.6,376293.1999999881,376507,2024-07-30T19:08:44.586Z,376564.4,fuDh-MbTW2,incremental,anketa,6645cf40bc81b65c5faccf1d,participant,hcpib7dulz8sbzje,,,mousedown,,Za koliko novca nevjerojatno je da je Goran prodao svoj stan??,Ono da je Goran prodao svoj stan za toliki novac nevjerojatno je..,si,31,32,18,,,
,Sequence,flow.Sequence,2_20,,,,,,completion,10866.89999998809,365396.09999996424,365409.7,365426.3,376293.1999999881,376507.3000000119,2024-07-30T19:08:44.586Z,376564.4,fuDh-MbTW2,incremental,anketa,6645cf40bc81b65c5faccf1d,participant,hcpib7dulz8sbzje,,,,,Za koliko novca nevjerojatno je da je Goran prodao svoj stan??,Ono da je Goran prodao svoj stan za toliki novac nevjerojatno je..,si,31,32,18,,,
,context,canvas.Screen,2_21_0_0,,,,,,response,2482.199999964214,376507.59999996424,376522.3,376564.4,379046.59999996424,379263.39999997616,2024-07-30T19:08:47.342Z,379309.5,fuDh-MbTW2,incremental,anketa,6645cf40bc81b65c5faccf1d,participant,hcpib7dulz8sbzje,,,click,,Od čega je djed otišao u sanatorij odmarati?,Djed je otišao u sanatorij odmarati od gužve i buke..,ai,,26,30,,,
,Timer frame,html.Frame,2_21_0,,,,,,,2699.199999964214,376507.39999997616,376522.3,376564.4,379263.59999996424,379263.8000000119,2024-07-30T19:08:47.342Z,379309.5,fuDh-MbTW2,incremental,anketa,6645cf40bc81b65c5faccf1d,participant,hcpib7dulz8sbzje,,,,,Od čega je djed otišao u sanatorij odmarati?,Djed je otišao u sanatorij odmarati od gužve i buke..,ai,,26,30,,,
,stimulus,canvas.Screen,2_21_1_0,,,,,,response,5226.699999988079,379264.1999999881,379259.5,379309.5,384536.1999999881,384767.59999996424,2024-07-30T19:08:52.846Z,384799.6,fuDh-MbTW2,incremental,anketa,6645cf40bc81b65c5faccf1d,participant,hcpib7dulz8sbzje,,7,click @7,,Od čega je djed otišao u sanatorij odmarati?,Djed je otišao u sanatorij odmarati od gužve i buke..,ai,,26,30,,,
,Timer frame,html.Frame,2_21_1,,,,,,,5458.399999976158,379264,379259.5,379309.5,384767.89999997616,384768,2024-07-30T19:08:52.847Z,384799.6,fuDh-MbTW2,incremental,anketa,6645cf40bc81b65c5faccf1d,participant,hcpib7dulz8sbzje,,,,,Od čega je djed otišao u sanatorij odmarati?,Djed je otišao u sanatorij odmarati od gužve i buke..,ai,,26,30,,,
,Spremanje,canvas.Screen,2_21_2,,,,,,skipped,,384768.1999999881,,,384767.89999997616,384768.3000000119,2024-07-30T19:08:52.847Z,384799.6,fuDh-MbTW2,incremental,anketa,6645cf40bc81b65c5faccf1d,participant,hcpib7dulz8sbzje,,,,,Od čega je djed otišao u sanatorij odmarati?,Djed je otišao u sanatorij odmarati od gužve i buke..,ai,,26,30,,,
,Question form,html.Form,2_21_3,,,,,,skipped,,384768.39999997616,,,384767.89999997616,384768.59999996424,2024-07-30T19:08:52.847Z,384799.6,fuDh-MbTW2,incremental,anketa,6645cf40bc81b65c5faccf1d,participant,hcpib7dulz8sbzje,,,,,Od čega je djed otišao u sanatorij odmarati?,Djed je otišao u sanatorij odmarati od gužve i buke..,ai,,26,30,,,
,Answer indication,canvas.Screen,2_21_4,,,,,,skipped,,384770.39999997616,,,384767.89999997616,384770.59999996424,2024-07-30T19:08:52.849Z,384799.6,fuDh-MbTW2,incremental,anketa,6645cf40bc81b65c5faccf1d,participant,hcpib7dulz8sbzje,,,,,Od čega je djed otišao u sanatorij odmarati?,Djed je otišao u sanatorij odmarati od gužve i buke..,ai,,26,30,,,
,inter-stimulus,canvas.Screen,2_21_5,,,,,,response,637.9000000000233,384770.6999999881,384766.1,384799.6,385437.5,385661.09999996424,2024-07-30T19:08:53.740Z,385700.3,fuDh-MbTW2,incremental,anketa,6645cf40bc81b65c5faccf1d,participant,hcpib7dulz8sbzje,,,mousedown,,Od čega je djed otišao u sanatorij odmarati?,Djed je otišao u sanatorij odmarati od gužve i buke..,ai,,26,30,,,
,Sequence,flow.Sequence,2_21,,,,,,completion,8873.099999999977,376507.3000000119,376522.3,376564.4,385437.5,385661.5,2024-07-30T19:08:53.740Z,385700.3,fuDh-MbTW2,incremental,anketa,6645cf40bc81b65c5faccf1d,participant,hcpib7dulz8sbzje,,,,,Od čega je djed otišao u sanatorij odmarati?,Djed je otišao u sanatorij odmarati od gužve i buke..,ai,,26,30,,,
,context,canvas.Screen,2_22_0_0,,,,,,response,1680.7000000000116,385662,385666.9,385700.3,387381,387607.3000000119,2024-07-30T19:08:55.686Z,387644.3,fuDh-MbTW2,incremental,anketa,6645cf40bc81b65c5faccf1d,participant,hcpib7dulz8sbzje,,,click,,Što si saznao tužnu vijest da je Petar izgubio u podzemnoj??,Saznao si tužnu vijest da je Petar izgubio putovnicu u podzemnoj..,cnp,38,34,9,,,
,Timer frame,html.Frame,2_22_0,,,,,,,1907.2999999642489,385661.8000000119,385666.9,385700.3,387607.59999996424,387607.8000000119,2024-07-30T19:08:55.686Z,387644.3,fuDh-MbTW2,incremental,anketa,6645cf40bc81b65c5faccf1d,participant,hcpib7dulz8sbzje,,,,,Što si saznao tužnu vijest da je Petar izgubio u podzemnoj??,Saznao si tužnu vijest da je Petar izgubio putovnicu u podzemnoj..,cnp,38,34,9,,,
,stimulus,canvas.Screen,2_22_1_0,,,,,,response,2123.2000000000116,387608.3000000119,387610.9,387644.3,389767.5,389991.09999996424,2024-07-30T19:08:58.070Z,390030.8,fuDh-MbTW2,incremental,anketa,6645cf40bc81b65c5faccf1d,participant,hcpib7dulz8sbzje,,1,click @1,,Što si saznao tužnu vijest da je Petar izgubio u podzemnoj??,Saznao si tužnu vijest da je Petar izgubio putovnicu u podzemnoj..,cnp,38,34,9,,,
,Timer frame,html.Frame,2_22_1,,,,,,,2347.0000000119326,387608,387610.9,387644.3,389991.3000000119,389991.39999997616,2024-07-30T19:08:58.070Z,390030.8,fuDh-MbTW2,incremental,anketa,6645cf40bc81b65c5faccf1d,participant,hcpib7dulz8sbzje,,,,,Što si saznao tužnu vijest da je Petar izgubio u podzemnoj??,Saznao si tužnu vijest da je Petar izgubio putovnicu u podzemnoj..,cnp,38,34,9,,,
,Spremanje,canvas.Screen,2_22_2,,,,,,skipped,,389991.59999996424,,,389991.3000000119,389991.6999999881,2024-07-30T19:08:58.070Z,390030.8,fuDh-MbTW2,incremental,anketa,6645cf40bc81b65c5faccf1d,participant,hcpib7dulz8sbzje,,,,,Što si saznao tužnu vijest da je Petar izgubio u podzemnoj??,Saznao si tužnu vijest da je Petar izgubio putovnicu u podzemnoj..,cnp,38,34,9,,,
,Question form,html.Form,2_22_3,,,,,,skipped,,389991.8000000119,,,389991.3000000119,389991.89999997616,2024-07-30T19:08:58.070Z,390030.8,fuDh-MbTW2,incremental,anketa,6645cf40bc81b65c5faccf1d,participant,hcpib7dulz8sbzje,,,,,Što si saznao tužnu vijest da je Petar izgubio u podzemnoj??,Saznao si tužnu vijest da je Petar izgubio putovnicu u podzemnoj..,cnp,38,34,9,,,
,Answer indication,canvas.Screen,2_22_4,,,,,,skipped,,389992.89999997616,,,389991.3000000119,389993.09999996424,2024-07-30T19:08:58.072Z,390030.8,fuDh-MbTW2,incremental,anketa,6645cf40bc81b65c5faccf1d,participant,hcpib7dulz8sbzje,,,,,Što si saznao tužnu vijest da je Petar izgubio u podzemnoj??,Saznao si tužnu vijest da je Petar izgubio putovnicu u podzemnoj..,cnp,38,34,9,,,
,inter-stimulus,canvas.Screen,2_22_5,,,,,,response,12711.500000011933,389993.1999999881,389997.4,390030.8,402742.3000000119,402990.09999996424,2024-07-30T19:09:11.069Z,403014.1,fuDh-MbTW2,incremental,anketa,6645cf40bc81b65c5faccf1d,participant,hcpib7dulz8sbzje,,,mousedown,,Što si saznao tužnu vijest da je Petar izgubio u podzemnoj??,Saznao si tužnu vijest da je Petar izgubio putovnicu u podzemnoj..,cnp,38,34,9,,,
,Sequence,flow.Sequence,2_22,,,,,,completion,17042.000000011933,385661.59999996424,385666.9,385700.3,402742.3000000119,402990.59999996424,2024-07-30T19:09:11.069Z,403014.1,fuDh-MbTW2,incremental,anketa,6645cf40bc81b65c5faccf1d,participant,hcpib7dulz8sbzje,,,,,Što si saznao tužnu vijest da je Petar izgubio u podzemnoj??,Saznao si tužnu vijest da je Petar izgubio putovnicu u podzemnoj..,cnp,38,34,9,,,
,context,canvas.Screen,2_23_0_0,,,,,,response,5302.900000000023,402991.09999996424,402997.4,403014.1,408317,408553.09999996424,2024-07-30T19:09:16.632Z,408613.7,fuDh-MbTW2,incremental,anketa,6645cf40bc81b65c5faccf1d,participant,hcpib7dulz8sbzje,,,click,,Tko je ovo bio jasan slučaj da je zapravo pohlepna osoba??,Ovo je bio jasan slučaj da je on zapravo pohlepna osoba..,cnp,41,40,8,,,
,Timer frame,html.Frame,2_23_0,,,,,,,5539.200000011944,402990.8000000119,402997.4,403014.1,408553.3000000119,408553.5,2024-07-30T19:09:16.632Z,408613.7,fuDh-MbTW2,incremental,anketa,6645cf40bc81b65c5faccf1d,participant,hcpib7dulz8sbzje,,,,,Tko je ovo bio jasan slučaj da je zapravo pohlepna osoba??,Ovo je bio jasan slučaj da je on zapravo pohlepna osoba..,cnp,41,40,8,,,
,stimulus,canvas.Screen,2_23_1_0,,,,,,response,2749.4999999880674,408554,408554.9,408613.7,411363.1999999881,411580.89999997616,2024-07-30T19:09:19.659Z,411601.2,fuDh-MbTW2,incremental,anketa,6645cf40bc81b65c5faccf1d,participant,hcpib7dulz8sbzje,,1,click @1,,Tko je ovo bio jasan slučaj da je zapravo pohlepna osoba??,Ovo je bio jasan slučaj da je on zapravo pohlepna osoba..,cnp,41,40,8,,,
,Timer frame,html.Frame,2_23_1,,,,,,,2967.3999999642256,408553.6999999881,408554.9,408613.7,411581.09999996424,411581.09999996424,2024-07-30T19:09:19.660Z,411601.2,fuDh-MbTW2,incremental,anketa,6645cf40bc81b65c5faccf1d,participant,hcpib7dulz8sbzje,,,,,Tko je ovo bio jasan slučaj da je zapravo pohlepna osoba??,Ovo je bio jasan slučaj da je on zapravo pohlepna osoba..,cnp,41,40,8,,,
,Spremanje,canvas.Screen,2_23_2,,,,,,skipped,,411581.1999999881,,,411581.09999996424,411581.3000000119,2024-07-30T19:09:19.660Z,411601.2,fuDh-MbTW2,incremental,anketa,6645cf40bc81b65c5faccf1d,participant,hcpib7dulz8sbzje,,,,,Tko je ovo bio jasan slučaj da je zapravo pohlepna osoba??,Ovo je bio jasan slučaj da je on zapravo pohlepna osoba..,cnp,41,40,8,,,
,Question form,html.Form,2_23_3,,,,,,skipped,,411581.3000000119,,,411581.09999996424,411581.39999997616,2024-07-30T19:09:19.660Z,411601.2,fuDh-MbTW2,incremental,anketa,6645cf40bc81b65c5faccf1d,participant,hcpib7dulz8sbzje,,,,,Tko je ovo bio jasan slučaj da je zapravo pohlepna osoba??,Ovo je bio jasan slučaj da je on zapravo pohlepna osoba..,cnp,41,40,8,,,
,Answer indication,canvas.Screen,2_23_4,,,,,,skipped,,411582.1999999881,,,411581.09999996424,411582.3000000119,2024-07-30T19:09:19.661Z,411601.2,fuDh-MbTW2,incremental,anketa,6645cf40bc81b65c5faccf1d,participant,hcpib7dulz8sbzje,,,,,Tko je ovo bio jasan slučaj da je zapravo pohlepna osoba??,Ovo je bio jasan slučaj da je on zapravo pohlepna osoba..,cnp,41,40,8,,,
,inter-stimulus,canvas.Screen,2_23_5,,,,,,response,646.3999999642256,411582.39999997616,411584.5,411601.2,412247.59999996424,412455,2024-07-30T19:09:20.533Z,412494,fuDh-MbTW2,incremental,anketa,6645cf40bc81b65c5faccf1d,participant,hcpib7dulz8sbzje,,,mousedown,,Tko je ovo bio jasan slučaj da je zapravo pohlepna osoba??,Ovo je bio jasan slučaj da je on zapravo pohlepna osoba..,cnp,41,40,8,,,
,Sequence,flow.Sequence,2_23,,,,,,completion,9233.49999996426,402990.8000000119,402997.4,403014.1,412247.59999996424,412455.39999997616,2024-07-30T19:09:20.534Z,412494,fuDh-MbTW2,incremental,anketa,6645cf40bc81b65c5faccf1d,participant,hcpib7dulz8sbzje,,,,,Tko je ovo bio jasan slučaj da je zapravo pohlepna osoba??,Ovo je bio jasan slučaj da je on zapravo pohlepna osoba..,cnp,41,40,8,,,
,context,canvas.Screen,2_24_0_0,,,,,,response,2573.899999976158,412456,412460.6,412494,415067.89999997616,415276.6999999881,2024-07-30T19:09:23.355Z,415330.7,fuDh-MbTW2,incremental,anketa,6645cf40bc81b65c5faccf1d,participant,hcpib7dulz8sbzje,,,click,,Komu tužno je gledati da ljudi i dalje daju novac??,Tužno je gledati da ljudi i dalje daju novac šarlatanima..,si,38,33,19,,,
,Timer frame,html.Frame,2_24_0,,,,,,,2783,412455.6999999881,412460.6,412494,415277,415277.3000000119,2024-07-30T19:09:23.356Z,415330.7,fuDh-MbTW2,incremental,anketa,6645cf40bc81b65c5faccf1d,participant,hcpib7dulz8sbzje,,,,,Komu tužno je gledati da ljudi i dalje daju novac??,Tužno je gledati da ljudi i dalje daju novac šarlatanima..,si,38,33,19,,,
,stimulus,canvas.Screen,2_24_1_0,,,,,,response,6035.899999964226,415277.89999997616,415288.9,415330.7,421366.59999996424,421591.09999996424,2024-07-30T19:09:29.670Z,421629.4,fuDh-MbTW2,incremental,anketa,6645cf40bc81b65c5faccf1d,participant,hcpib7dulz8sbzje,,5,click @5,,Komu tužno je gledati da ljudi i dalje daju novac??,Tužno je gledati da ljudi i dalje daju novac šarlatanima..,si,38,33,19,,,
,Timer frame,html.Frame,2_24_1,,,,,,,6260.600000011909,415277.59999996424,415288.9,415330.7,421591.3000000119,421591.5,2024-07-30T19:09:29.670Z,421629.4,fuDh-MbTW2,incremental,anketa,6645cf40bc81b65c5faccf1d,participant,hcpib7dulz8sbzje,,,,,Komu tužno je gledati da ljudi i dalje daju novac??,Tužno je gledati da ljudi i dalje daju novac šarlatanima..,si,38,33,19,,,
,Spremanje,canvas.Screen,2_24_2,,,,,,skipped,,421591.5,,,421591.3000000119,421591.6999999881,2024-07-30T19:09:29.670Z,421629.4,fuDh-MbTW2,incremental,anketa,6645cf40bc81b65c5faccf1d,participant,hcpib7dulz8sbzje,,,,,Komu tužno je gledati da ljudi i dalje daju novac??,Tužno je gledati da ljudi i dalje daju novac šarlatanima..,si,38,33,19,,,
,Question form,html.Form,2_24_3,,,,,,skipped,,421591.8000000119,,,421591.3000000119,421591.89999997616,2024-07-30T19:09:29.670Z,421629.4,fuDh-MbTW2,incremental,anketa,6645cf40bc81b65c5faccf1d,participant,hcpib7dulz8sbzje,,,,,Komu tužno je gledati da ljudi i dalje daju novac??,Tužno je gledati da ljudi i dalje daju novac šarlatanima..,si,38,33,19,,,
,Answer indication,canvas.Screen,2_24_4,,,,,,skipped,,421593.3000000119,,,421591.3000000119,421593.5,2024-07-30T19:09:29.672Z,421629.4,fuDh-MbTW2,incremental,anketa,6645cf40bc81b65c5faccf1d,participant,hcpib7dulz8sbzje,,,,,Komu tužno je gledati da ljudi i dalje daju novac??,Tužno je gledati da ljudi i dalje daju novac šarlatanima..,si,38,33,19,,,
,inter-stimulus,canvas.Screen,2_24_5,,,,,,response,638.4000000118976,421593.59999996424,421596.1,421629.4,422267.8000000119,422509.1999999881,2024-07-30T19:09:30.588Z,422564,fuDh-MbTW2,incremental,anketa,6645cf40bc81b65c5faccf1d,participant,hcpib7dulz8sbzje,,,mousedown,,Komu tužno je gledati da ljudi i dalje daju novac??,Tužno je gledati da ljudi i dalje daju novac šarlatanima..,si,38,33,19,,,
,Sequence,flow.Sequence,2_24,,,,,,completion,9773.800000011921,412455.5,412460.6,412494,422267.8000000119,422509.59999996424,2024-07-30T19:09:30.588Z,422564,fuDh-MbTW2,incremental,anketa,6645cf40bc81b65c5faccf1d,participant,hcpib7dulz8sbzje,,,,,Komu tužno je gledati da ljudi i dalje daju novac??,Tužno je gledati da ljudi i dalje daju novac šarlatanima..,si,38,33,19,,,
,context,canvas.Screen,2_25_0_0,,,,,,response,3182.699999988079,422510.09999996424,422522.1,422564,425746.6999999881,425963.89999997616,2024-07-30T19:09:34.042Z,425992.5,fuDh-MbTW2,incremental,anketa,6645cf40bc81b65c5faccf1d,participant,hcpib7dulz8sbzje,,,click,,Tko ono da je prodao svoj stan za toliki novac nevjerojatno je??,Ono da je Goran prodao svoj stan za toliki novac nevjerojatno je..,si,30,32,17,,,
,Timer frame,html.Frame,2_25_0,,,,,,,3400.199999988079,422510,422522.1,422564,425964.1999999881,425964.39999997616,2024-07-30T19:09:34.043Z,425992.5,fuDh-MbTW2,incremental,anketa,6645cf40bc81b65c5faccf1d,participant,hcpib7dulz8sbzje,,,,,Tko ono da je prodao svoj stan za toliki novac nevjerojatno je??,Ono da je Goran prodao svoj stan za toliki novac nevjerojatno je..,si,30,32,17,,,
,stimulus,canvas.Screen,2_25_1_0,,,,,,response,3516.800000011921,425964.6999999881,425959.166,425992.5,429509.3000000119,429723.1999999881,2024-07-30T19:09:37.802Z,429780.4,fuDh-MbTW2,incremental,anketa,6645cf40bc81b65c5faccf1d,participant,hcpib7dulz8sbzje,,3,click @3,,Tko ono da je prodao svoj stan za toliki novac nevjerojatno je??,Ono da je Goran prodao svoj stan za toliki novac nevjerojatno je..,si,30,32,17,,,
,Timer frame,html.Frame,2_25_1,,,,,,,3731.099999964237,425964.39999997616,425959.166,425992.5,429723.59999996424,429723.8000000119,2024-07-30T19:09:37.802Z,429780.4,fuDh-MbTW2,incremental,anketa,6645cf40bc81b65c5faccf1d,participant,hcpib7dulz8sbzje,,,,,Tko ono da je prodao svoj stan za toliki novac nevjerojatno je??,Ono da je Goran prodao svoj stan za toliki novac nevjerojatno je..,si,30,32,17,,,
,Spremanje,canvas.Screen,2_25_2,,,,,,skipped,,429724,,,429723.59999996424,429724.09999996424,2024-07-30T19:09:37.803Z,429780.4,fuDh-MbTW2,incremental,anketa,6645cf40bc81b65c5faccf1d,participant,hcpib7dulz8sbzje,,,,,Tko ono da je prodao svoj stan za toliki novac nevjerojatno je??,Ono da je Goran prodao svoj stan za toliki novac nevjerojatno je..,si,30,32,17,,,
,Question form,html.Form,2_25_3,,,,,,skipped,,429724.1999999881,,,429723.59999996424,429724.3000000119,2024-07-30T19:09:37.803Z,429780.4,fuDh-MbTW2,incremental,anketa,6645cf40bc81b65c5faccf1d,participant,hcpib7dulz8sbzje,,,,,Tko ono da je prodao svoj stan za toliki novac nevjerojatno je??,Ono da je Goran prodao svoj stan za toliki novac nevjerojatno je..,si,30,32,17,,,
,Answer indication,canvas.Screen,2_25_4,,,,,,skipped,,429726.3000000119,,,429723.59999996424,429726.5,2024-07-30T19:09:37.805Z,429780.4,fuDh-MbTW2,incremental,anketa,6645cf40bc81b65c5faccf1d,participant,hcpib7dulz8sbzje,,,,,Tko ono da je prodao svoj stan za toliki novac nevjerojatno je??,Ono da je Goran prodao svoj stan za toliki novac nevjerojatno je..,si,30,32,17,,,
,inter-stimulus,canvas.Screen,2_25_5,,,,,,response,729.9999999761349,429726.59999996424,429722,429780.4,430510.39999997616,430727.59999996424,2024-07-30T19:09:38.806Z,430781.5,fuDh-MbTW2,incremental,anketa,6645cf40bc81b65c5faccf1d,participant,hcpib7dulz8sbzje,,,mousedown,,Tko ono da je prodao svoj stan za toliki novac nevjerojatno je??,Ono da je Goran prodao svoj stan za toliki novac nevjerojatno je..,si,30,32,17,,,
,Sequence,flow.Sequence,2_25,,,,,,completion,7946.399999976158,422509.8000000119,422522.1,422564,430510.39999997616,430728.09999996424,2024-07-30T19:09:38.807Z,430781.5,fuDh-MbTW2,incremental,anketa,6645cf40bc81b65c5faccf1d,participant,hcpib7dulz8sbzje,,,,,Tko ono da je prodao svoj stan za toliki novac nevjerojatno je??,Ono da je Goran prodao svoj stan za toliki novac nevjerojatno je..,si,30,32,17,,,
,context,canvas.Screen,2_26_0_0,,,,,,response,2331.599999964237,430728.59999996424,430739.6,430781.5,433113.09999996424,433323.39999997616,2024-07-30T19:09:41.402Z,433342.7,fuDh-MbTW2,incremental,anketa,6645cf40bc81b65c5faccf1d,participant,hcpib7dulz8sbzje,,,click,,Kakva čovjeka svatko tko poznaje može potvrditi njegov integritet??,Svatko tko poznaje onog čovjeka može potvrditi njegov integritet..,si,33,31,12,,,2305
,Timer frame,html.Frame,2_26_0,,,,,,,2542.199999988079,430728.3000000119,430739.6,430781.5,433323.6999999881,433323.89999997616,2024-07-30T19:09:41.402Z,433342.7,fuDh-MbTW2,incremental,anketa,6645cf40bc81b65c5faccf1d,participant,hcpib7dulz8sbzje,,,,,Kakva čovjeka svatko tko poznaje može potvrditi njegov integritet??,Svatko tko poznaje onog čovjeka može potvrditi njegov integritet..,si,33,31,12,,,2305
,stimulus,canvas.Screen,2_26_1_0,,,,,,response,7095.399999964226,433324.3000000119,433326.1,433342.7,440438.09999996424,440641.5,2024-07-30T19:09:48.720Z,440692.6,fuDh-MbTW2,incremental,anketa,6645cf40bc81b65c5faccf1d,participant,hcpib7dulz8sbzje,,2,click @2,,Kakva čovjeka svatko tko poznaje može potvrditi njegov integritet??,Svatko tko poznaje onog čovjeka može potvrditi njegov integritet..,si,33,31,12,,,2305
,Timer frame,html.Frame,2_26_1,,,,,,,7298.899999964226,433324,433326.1,433342.7,440641.59999996424,440641.8000000119,2024-07-30T19:09:48.720Z,440692.6,fuDh-MbTW2,incremental,anketa,6645cf40bc81b65c5faccf1d,participant,hcpib7dulz8sbzje,,,,,Kakva čovjeka svatko tko poznaje može potvrditi njegov integritet??,Svatko tko poznaje onog čovjeka može potvrditi njegov integritet..,si,33,31,12,,,2305
,Spremanje,canvas.Screen,2_26_2,,,,,,skipped,,440641.89999997616,,,440641.59999996424,440642,2024-07-30T19:09:48.721Z,440692.6,fuDh-MbTW2,incremental,anketa,6645cf40bc81b65c5faccf1d,participant,hcpib7dulz8sbzje,,,,,Kakva čovjeka svatko tko poznaje može potvrditi njegov integritet??,Svatko tko poznaje onog čovjeka može potvrditi njegov integritet..,si,33,31,12,,,2305
,Question form,html.Form,2_26_3,,,,,,skipped,,440642.1999999881,,,440641.59999996424,440642.39999997616,2024-07-30T19:09:48.721Z,440692.6,fuDh-MbTW2,incremental,anketa,6645cf40bc81b65c5faccf1d,participant,hcpib7dulz8sbzje,,,,,Kakva čovjeka svatko tko poznaje može potvrditi njegov integritet??,Svatko tko poznaje onog čovjeka može potvrditi njegov integritet..,si,33,31,12,,,2305
,Answer indication,canvas.Screen,2_26_4,,,,,,skipped,,440651.39999997616,,,440641.59999996424,440651.59999996424,2024-07-30T19:09:48.730Z,440692.6,fuDh-MbTW2,incremental,anketa,6645cf40bc81b65c5faccf1d,participant,hcpib7dulz8sbzje,,,,,Kakva čovjeka svatko tko poznaje može potvrditi njegov integritet??,Svatko tko poznaje onog čovjeka može potvrditi njegov integritet..,si,33,31,12,,,2305
,inter-stimulus,canvas.Screen,2_26_5,,,,,,response,696.9999999642605,440651.6999999881,440642.7,440692.6,441389.59999996424,441590.59999996424,2024-07-30T19:09:49.669Z,441618.3,fuDh-MbTW2,incremental,anketa,6645cf40bc81b65c5faccf1d,participant,hcpib7dulz8sbzje,,,mousedown,,Kakva čovjeka svatko tko poznaje može potvrditi njegov integritet??,Svatko tko poznaje onog čovjeka može potvrditi njegov integritet..,si,33,31,12,,,2305
,Sequence,flow.Sequence,2_26,,,,,,completion,10608.099999964237,430728.3000000119,430739.6,430781.5,441389.59999996424,441591,2024-07-30T19:09:49.670Z,441618.3,fuDh-MbTW2,incremental,anketa,6645cf40bc81b65c5faccf1d,participant,hcpib7dulz8sbzje,,,,,Kakva čovjeka svatko tko poznaje može potvrditi njegov integritet??,Svatko tko poznaje onog čovjeka može potvrditi njegov integritet..,si,33,31,12,,,2305
,context,canvas.Screen,2_27_0_0,,,,,,response,1698.3999999880907,441591.39999997616,441601.7,441618.3,443316.6999999881,443517.3000000119,2024-07-30T19:09:51.596Z,443562.8,fuDh-MbTW2,incremental,anketa,6645cf40bc81b65c5faccf1d,participant,hcpib7dulz8sbzje,,,click,,Tko se zaljubio u djevojku kad je bio dijete?,"Kad smo bili djeca, moj prijatelj i ja smo se zaljubili u istu djevojku..",gf,,33,52,,,
,Timer frame,html.Frame,2_27_0,,,,,,,1899.2999999642489,441591.1999999881,441601.7,441618.3,443517.59999996424,443517.8000000119,2024-07-30T19:09:51.596Z,443562.8,fuDh-MbTW2,incremental,anketa,6645cf40bc81b65c5faccf1d,participant,hcpib7dulz8sbzje,,,,,Tko se zaljubio u djevojku kad je bio dijete?,"Kad smo bili djeca, moj prijatelj i ja smo se zaljubili u istu djevojku..",gf,,33,52,,,
,stimulus,canvas.Screen,2_27_1_0,,,,,,response,6152.299999964249,443518,443529.5,443562.8,449715.09999996424,449942.8000000119,2024-07-30T19:09:58.021Z,449978.2,fuDh-MbTW2,incremental,anketa,6645cf40bc81b65c5faccf1d,participant,hcpib7dulz8sbzje,,4,click @4,,Tko se zaljubio u djevojku kad je bio dijete?,"Kad smo bili djeca, moj prijatelj i ja smo se zaljubili u istu djevojku..",gf,,33,52,,,
,Timer frame,html.Frame,2_27_1,,,,,,,6380.299999964249,443517.8000000119,443529.5,443562.8,449943.09999996424,449943.1999999881,2024-07-30T19:09:58.022Z,449978.2,fuDh-MbTW2,incremental,anketa,6645cf40bc81b65c5faccf1d,participant,hcpib7dulz8sbzje,,,,,Tko se zaljubio u djevojku kad je bio dijete?,"Kad smo bili djeca, moj prijatelj i ja smo se zaljubili u istu djevojku..",gf,,33,52,,,
,Spremanje,canvas.Screen,2_27_2,,,,,,skipped,,449943.39999997616,,,449943.09999996424,449943.39999997616,2024-07-30T19:09:58.022Z,449978.2,fuDh-MbTW2,incremental,anketa,6645cf40bc81b65c5faccf1d,participant,hcpib7dulz8sbzje,,,,,Tko se zaljubio u djevojku kad je bio dijete?,"Kad smo bili djeca, moj prijatelj i ja smo se zaljubili u istu djevojku..",gf,,33,52,,,
,Question form,html.Form,2_27_3,,,,,,skipped,,449943.59999996424,,,449943.09999996424,449943.59999996424,2024-07-30T19:09:58.022Z,449978.2,fuDh-MbTW2,incremental,anketa,6645cf40bc81b65c5faccf1d,participant,hcpib7dulz8sbzje,,,,,Tko se zaljubio u djevojku kad je bio dijete?,"Kad smo bili djeca, moj prijatelj i ja smo se zaljubili u istu djevojku..",gf,,33,52,,,
,Answer indication,canvas.Screen,2_27_4,,,,,,skipped,,449945.59999996424,,,449943.09999996424,449946,2024-07-30T19:09:58.025Z,449978.2,fuDh-MbTW2,incremental,anketa,6645cf40bc81b65c5faccf1d,participant,hcpib7dulz8sbzje,,,,,Tko se zaljubio u djevojku kad je bio dijete?,"Kad smo bili djeca, moj prijatelj i ja smo se zaljubili u istu djevojku..",gf,,33,52,,,
,inter-stimulus,canvas.Screen,2_27_5,,,,,,response,721.6000000119093,449946.3000000119,449944.8,449978.2,450699.8000000119,450909.1999999881,2024-07-30T19:09:58.988Z,450946,fuDh-MbTW2,incremental,anketa,6645cf40bc81b65c5faccf1d,participant,hcpib7dulz8sbzje,,,mousedown,,Tko se zaljubio u djevojku kad je bio dijete?,"Kad smo bili djeca, moj prijatelj i ja smo se zaljubili u istu djevojku..",gf,,33,52,,,
,Sequence,flow.Sequence,2_27,,,,,,completion,9081.500000011933,441591.1999999881,441601.7,441618.3,450699.8000000119,450909.59999996424,2024-07-30T19:09:58.988Z,450946,fuDh-MbTW2,incremental,anketa,6645cf40bc81b65c5faccf1d,participant,hcpib7dulz8sbzje,,,,,Tko se zaljubio u djevojku kad je bio dijete?,"Kad smo bili djeca, moj prijatelj i ja smo se zaljubili u istu djevojku..",gf,,33,52,,,
,context,canvas.Screen,2_28_0_0,,,,,,response,1439,450910,450912.6,450946,452385,452614.59999996424,2024-07-30T19:10:00.693Z,452664.8,fuDh-MbTW2,incremental,anketa,6645cf40bc81b65c5faccf1d,participant,hcpib7dulz8sbzje,,,click,,Čega je riješio taj misterij?,Riješio je taj misterij nestanka psa.,di,,,32,,,
,Timer frame,html.Frame,2_28_0,,,,,,,1668.8999999761581,450909.8000000119,450912.6,450946,452614.89999997616,452615,2024-07-30T19:10:00.693Z,452664.8,fuDh-MbTW2,incremental,anketa,6645cf40bc81b65c5faccf1d,participant,hcpib7dulz8sbzje,,,,,Čega je riješio taj misterij?,Riješio je taj misterij nestanka psa.,di,,,32,,,
,stimulus,canvas.Screen,2_28_1_0,,,,,,response,5652.000000011933,452615.3000000119,452622.6,452664.8,458316.8000000119,458542.3000000119,2024-07-30T19:10:06.621Z,458646.6,fuDh-MbTW2,incremental,anketa,6645cf40bc81b65c5faccf1d,participant,hcpib7dulz8sbzje,,6,click @6,,Čega je riješio taj misterij?,Riješio je taj misterij nestanka psa.,di,,,32,,,
,Timer frame,html.Frame,2_28_1,,,,,,,5877.700000000012,452615.09999996424,452622.6,452664.8,458542.5,458542.6999999881,2024-07-30T19:10:06.621Z,458646.6,fuDh-MbTW2,incremental,anketa,6645cf40bc81b65c5faccf1d,participant,hcpib7dulz8sbzje,,,,,Čega je riješio taj misterij?,Riješio je taj misterij nestanka psa.,di,,,32,,,
,Spremanje,canvas.Screen,2_28_2,,,,,,skipped,,458542.89999997616,,,458542.5,458543,2024-07-30T19:10:06.621Z,458646.6,fuDh-MbTW2,incremental,anketa,6645cf40bc81b65c5faccf1d,participant,hcpib7dulz8sbzje,,,,,Čega je riješio taj misterij?,Riješio je taj misterij nestanka psa.,di,,,32,,,
,Question form,html.Form,2_28_3,,,,,,skipped,,458543.09999996424,,,458542.5,458543.1999999881,2024-07-30T19:10:06.622Z,458646.6,fuDh-MbTW2,incremental,anketa,6645cf40bc81b65c5faccf1d,participant,hcpib7dulz8sbzje,,,,,Čega je riješio taj misterij?,Riješio je taj misterij nestanka psa.,di,,,32,,,
,Answer indication,canvas.Screen,2_28_4,,,,,,skipped,,458545.3000000119,,,458542.5,458545.39999997616,2024-07-30T19:10:06.624Z,458646.6,fuDh-MbTW2,incremental,anketa,6645cf40bc81b65c5faccf1d,participant,hcpib7dulz8sbzje,,,,,Čega je riješio taj misterij?,Riješio je taj misterij nestanka psa.,di,,,32,,,
,inter-stimulus,canvas.Screen,2_28_5,,,,,,response,638.0999999881024,458545.59999996424,458546.6,458646.6,459284.6999999881,459501.3000000119,2024-07-30T19:10:07.580Z,459556.2,fuDh-MbTW2,incremental,anketa,6645cf40bc81b65c5faccf1d,participant,hcpib7dulz8sbzje,,,mousedown,,Čega je riješio taj misterij?,Riješio je taj misterij nestanka psa.,di,,,32,,,
,Sequence,flow.Sequence,2_28,,,,,,completion,8338.699999988079,450909.6999999881,450912.6,450946,459284.6999999881,459501.6999999881,2024-07-30T19:10:07.580Z,459556.2,fuDh-MbTW2,incremental,anketa,6645cf40bc81b65c5faccf1d,participant,hcpib7dulz8sbzje,,,,,Čega je riješio taj misterij?,Riješio je taj misterij nestanka psa.,di,,,32,,,
,context,canvas.Screen,2_29_0_0,,,,,,response,2281.6000000119093,459502.89999997616,459514.4,459556.2,461837.8000000119,462056.09999996424,2024-07-30T19:10:10.135Z,,fuDh-MbTW2,incremental,anketa,6645cf40bc81b65c5faccf1d,participant,hcpib7dulz8sbzje,,,click,,Tko je jučer susjedu ukrao kobasicu?,Jučer je riđa mačka susjedu ukrala kobasicu.,gf,,,50,KOBASICU; KOBASICA,Što je ukrala mačka?,
,Timer frame,html.Frame,2_29_0,,,,,,,2500.1000000119093,459502.59999996424,459514.4,459556.2,462056.3000000119,462056.5,2024-07-30T19:10:10.135Z,,fuDh-MbTW2,incremental,anketa,6645cf40bc81b65c5faccf1d,participant,hcpib7dulz8sbzje,,,,,Tko je jučer susjedu ukrao kobasicu?,Jučer je riđa mačka susjedu ukrala kobasicu.,gf,,,50,KOBASICU; KOBASICA,Što je ukrala mačka?,
,stimulus,canvas.Screen,2_29_1_0,,,,,,response,2114.9000000118976,462056.8000000119,462051,462109.4,464224.3000000119,464440.5,2024-07-30T19:10:12.519Z,464495.9,fuDh-MbTW2,incremental,anketa,6645cf40bc81b65c5faccf1d,participant,hcpib7dulz8sbzje,,7,click @7,,Tko je jučer susjedu ukrao kobasicu?,Jučer je riđa mačka susjedu ukrala kobasicu.,gf,,,50,KOBASICU; KOBASICA,Što je ukrala mačka?,
,Timer frame,html.Frame,2_29_1,,,,,,,2331.299999988056,462056.5,462051,462109.4,464440.6999999881,464440.89999997616,2024-07-30T19:10:12.519Z,464495.9,fuDh-MbTW2,incremental,anketa,6645cf40bc81b65c5faccf1d,participant,hcpib7dulz8sbzje,,,,,Tko je jučer susjedu ukrao kobasicu?,Jučer je riđa mačka susjedu ukrala kobasicu.,gf,,,50,KOBASICU; KOBASICA,Što je ukrala mačka?,
,Spremanje,canvas.Screen,2_29_2,,,,,,response,2464.999999976135,464441,464453.9,464495.9,466960.89999997616,467175.8000000119,2024-07-30T19:10:15.255Z,467240.8,fuDh-MbTW2,incremental,anketa,6645cf40bc81b65c5faccf1d,participant,hcpib7dulz8sbzje,,,mousedown,,Tko je jučer susjedu ukrao kobasicu?,Jučer je riđa mačka susjedu ukrala kobasicu.,gf,,,50,KOBASICU; KOBASICA,Što je ukrala mačka?,
,Question form,html.Form,2_29_3,,,,,,form submission,5716.09999997617,467176.1999999881,467182.4,467240.8,472956.89999997616,472957.5,2024-07-30T19:10:21.036Z,472989.4,fuDh-MbTW2,incremental,anketa,6645cf40bc81b65c5faccf1d,participant,hcpib7dulz8sbzje,,,,rukavicu,Tko je jučer susjedu ukrao kobasicu?,Jučer je riđa mačka susjedu ukrala kobasicu.,gf,,,50,KOBASICU; KOBASICA,Što je ukrala mačka?,
,Answer indication,canvas.Screen,2_29_4,,,,,,response,5284.999999976135,472959.09999996424,472956.1,472989.4,478274.39999997616,478513.59999996424,2024-07-30T19:10:26.592Z,478570.8,fuDh-MbTW2,incremental,anketa,6645cf40bc81b65c5faccf1d,participant,hcpib7dulz8sbzje,,,mousedown,,Tko je jučer susjedu ukrao kobasicu?,Jučer je riđa mačka susjedu ukrala kobasicu.,gf,,,50,KOBASICU; KOBASICA,Što je ukrala mačka?,
,inter-stimulus,canvas.Screen,2_29_5,,,,,,response,1797.2999999642489,478513.89999997616,478528.9,478570.8,480368.09999996424,480625.8000000119,2024-07-30T19:10:28.704Z,480656.5,fuDh-MbTW2,incremental,anketa,6645cf40bc81b65c5faccf1d,participant,hcpib7dulz8sbzje,,,mousedown,,Tko je jučer susjedu ukrao kobasicu?,Jučer je riđa mačka susjedu ukrala kobasicu.,gf,,,50,KOBASICU; KOBASICA,Što je ukrala mačka?,
,Sequence,flow.Sequence,2_29,,,,,,completion,20811.899999964226,459501.8000000119,459514.4,459556.2,480368.09999996424,480626.1999999881,2024-07-30T19:10:28.705Z,480656.5,fuDh-MbTW2,incremental,anketa,6645cf40bc81b65c5faccf1d,participant,hcpib7dulz8sbzje,,,,,Tko je jučer susjedu ukrao kobasicu?,Jučer je riđa mačka susjedu ukrala kobasicu.,gf,,,50,KOBASICU; KOBASICA,Što je ukrala mačka?,
,context,canvas.Screen,2_30_0_0,,,,,,response,4526,480626.6999999881,480639.9,480656.5,485182.5,485406,2024-07-30T19:10:33.485Z,485461.9,fuDh-MbTW2,incremental,anketa,6645cf40bc81b65c5faccf1d,participant,hcpib7dulz8sbzje,,,click,,Na što je teško prestati besmisleno bacati novac?,Teško je prestati besmisleno bacati novac na tenisice.,si,,,13,,,
