meta,sender,sender_type,sender_id,age,education,croatian-knowledge,occupation,,ended_on,duration,time_run,time_render,time_show,time_end,time_commit,timestamp,time_switch,openLabId,type,task,project,status,code,confirmationCode,response,response_action,answer_true,stimulus,context,island_type,transfer_s,transfer_c,id,right_answer,question,change_date
"{""labjs_version"":""20.2.4"",""labjs_build"":{""flavor"":""production"",""commit"":""f5b4a49f956347addd546a832a3327688c2c0fef""},""location"":""https://open-lab.online/test/anketa/66a917b8e3bab725623a413a"",""userAgent"":""Mozilla/5.0 (Linux; Android 10; K) AppleWebKit/537.36 (KHTML, like Gecko) Chrome/127.0.0.0 Mobile Safari/537.36"",""platform"":""Linux armv81"",""language"":""en-HR"",""locale"":""en-GB"",""timeZone"":""Europe/Zagreb"",""timezoneOffset"":-120,""screen_width"":360,""screen_height"":780,""scroll_width"":980,""scroll_height"":1898,""window_innerWidth"":980,""window_innerHeight"":1794,""devicePixelRatio"":3}",Demography form,html.Form,0,53,master,mother-tongue,Poduzetnik,,form submission,45568.599999976155,1080.2999999821186,1092.7,1108.8,46677.39999997616,46678.19999998808,2024-07-30T16:42:15.182Z,46721.6,iw2l9YzZCx,incremental,anketa,6645cf40bc81b65c5faccf1d,participant,hcpib7dulz8nao1i,797565,,,,,,,,,,,,
,context,canvas.Screen,1_0,,,,,,response,16572.19999998212,46678.69999998808,46704.618,46721.6,63293.79999998212,63525.89999997616,2024-07-30T16:42:32.029Z,63564.2,iw2l9YzZCx,incremental,anketa,6645cf40bc81b65c5faccf1d,participant,hcpib7dulz8nao1i,,,click,,,,,,,,,,
,stimulus,canvas.Screen,1_1,,,,,,response,12980.300000000003,63526.19999998808,63549.316,63564.2,76544.5,76798.19999998808,2024-07-30T16:42:45.302Z,76844.892,iw2l9YzZCx,incremental,anketa,6645cf40bc81b65c5faccf1d,participant,hcpib7dulz8nao1i,,7,click @7,,,,,,,,,,
,inter-stimulus,canvas.Screen,1_2,,,,,,response,8421.607999999993,76798.29999998212,76844.892,76844.892,85266.5,85469.09999999404,2024-07-30T16:42:53.973Z,85499.832,iw2l9YzZCx,incremental,anketa,6645cf40bc81b65c5faccf1d,participant,hcpib7dulz8nao1i,,,mousedown,,,,,,,,,,
,context,canvas.Screen,1_3,,,,,,response,6742.767999994045,85469.19999998808,85499.832,85499.832,92242.59999999404,92422.79999998212,2024-07-30T16:43:00.926Z,92477.5,iw2l9YzZCx,incremental,anketa,6645cf40bc81b65c5faccf1d,participant,hcpib7dulz8nao1i,,,click,,,,,,,,,,
,stimulus,canvas.Screen,1_4,,,,,,response,11158.899999976158,92422.89999997616,92466.22,92477.5,103636.39999997616,103867,2024-07-30T16:43:12.371Z,103901.158,iw2l9YzZCx,incremental,anketa,6645cf40bc81b65c5faccf1d,participant,hcpib7dulz8nao1i,,1,click @1,,,,,,,,,,
,inter-stimulus,canvas.Screen,1_5,,,,,,response,11024.842000000004,103867.29999998212,103901.158,103901.158,114926,115149.89999997616,2024-07-30T16:43:23.653Z,115198.8,iw2l9YzZCx,incremental,anketa,6645cf40bc81b65c5faccf1d,participant,hcpib7dulz8nao1i,,,mousedown,,,,,,,,,,
,context,canvas.Screen,1_6,,,,,,response,4513.199999999997,115150.09999999404,115198.8,115198.8,119712,119958.89999997616,2024-07-30T16:43:28.462Z,119998.608,iw2l9YzZCx,incremental,anketa,6645cf40bc81b65c5faccf1d,participant,hcpib7dulz8nao1i,,,click,,,,,,,,,,
,stimulus,canvas.Screen,1_7_0,,,,,,response,5895.491999994047,119964.09999999404,119998.608,119998.608,125894.09999999404,126072.19999998808,2024-07-30T16:43:34.576Z,126129.2,iw2l9YzZCx,incremental,anketa,6645cf40bc81b65c5faccf1d,participant,hcpib7dulz8nao1i,,7,click @7,,,,,,,,,,
,Timer frame,html.Frame,1_7,,,,,,,6073.791999976165,119959.09999999404,119998.608,119998.608,126072.39999997616,126073.09999999404,2024-07-30T16:43:34.577Z,126129.2,iw2l9YzZCx,incremental,anketa,6645cf40bc81b65c5faccf1d,participant,hcpib7dulz8nao1i,,,,,,,,,,,,,
,Screen,canvas.Screen,1_8,,,,,,response,7708.399999994042,126073.19999998808,126119.094,126129.2,133837.59999999404,134094,2024-07-30T16:43:42.597Z,134118.9,iw2l9YzZCx,incremental,anketa,6645cf40bc81b65c5faccf1d,participant,hcpib7dulz8nao1i,,,mousedown,,,,,,,,,,
,Question form,html.Form,1_9,,,,,,form submission,8827.499999976164,134094.09999999404,134102.9,134118.9,142946.39999997616,142946.69999998808,2024-07-30T16:43:51.450Z,142988.8,iw2l9YzZCx,incremental,anketa,6645cf40bc81b65c5faccf1d,participant,hcpib7dulz8nao1i,,,,"Zrele ",,,,,,,,,
,Screen,canvas.Screen,1_10,,,,,,response,5231.799999994051,142955.89999997616,142982.49,142988.8,148220.59999999404,148455.29999998212,2024-07-30T16:43:56.959Z,148496.2,iw2l9YzZCx,incremental,anketa,6645cf40bc81b65c5faccf1d,participant,hcpib7dulz8nao1i,,,mousedown,,,,,,,,,,
,inter-stimulus,canvas.Screen,1_11,,,,,,response,7212.6999999761465,148455.5,148490.076,148496.2,155708.89999997616,155964.19999998808,2024-07-30T16:44:04.468Z,155992.93,iw2l9YzZCx,incremental,anketa,6645cf40bc81b65c5faccf1d,participant,hcpib7dulz8nao1i,,,mousedown,,,,,,,,,,
,First stimuli,flow.Sequence,1,,,,,,completion,108987.29999997615,46678.69999998808,46704.618,46721.6,155708.89999997616,155966.19999998808,2024-07-30T16:44:04.470Z,155992.93,iw2l9YzZCx,incremental,anketa,6645cf40bc81b65c5faccf1d,participant,hcpib7dulz8nao1i,,,,,,,,,,,,,
,context,canvas.Screen,2_0_0_0,,,,,,response,6731.1699999940465,155966.69999998808,155992.93,155992.93,162724.09999999404,162954.69999998808,2024-07-30T16:44:11.458Z,163007.096,iw2l9YzZCx,incremental,anketa,6645cf40bc81b65c5faccf1d,participant,hcpib7dulz8nao1i,,,click,,Kakva je kraj mene biciklom prošla djevojka?,Kraj mene je biciklom prošla vrlo lijepa djevojka.,ai,,,27,,,
,Timer frame,html.Frame,2_0_0,,,,,,,6961.969999976165,155966.39999997616,155992.93,155992.93,162954.89999997616,162955.59999999404,2024-07-30T16:44:11.459Z,163007.096,iw2l9YzZCx,incremental,anketa,6645cf40bc81b65c5faccf1d,participant,hcpib7dulz8nao1i,,,,,Kakva je kraj mene biciklom prošla djevojka?,Kraj mene je biciklom prošla vrlo lijepa djevojka.,ai,,,27,,,
,stimulus,canvas.Screen,2_0_1_0,,,,,,response,8554.803999976168,162955.89999997616,163007.096,163007.096,171561.89999997616,171810.09999999404,2024-07-30T16:44:20.314Z,171842.998,iw2l9YzZCx,incremental,anketa,6645cf40bc81b65c5faccf1d,participant,hcpib7dulz8nao1i,,2,click @2,,Kakva je kraj mene biciklom prošla djevojka?,Kraj mene je biciklom prošla vrlo lijepa djevojka.,ai,,,27,,,
,Timer frame,html.Frame,2_0_1,,,,,,,8803.203999982128,162955.69999998808,163007.096,163007.096,171810.29999998212,171811,2024-07-30T16:44:20.314Z,171842.998,iw2l9YzZCx,incremental,anketa,6645cf40bc81b65c5faccf1d,participant,hcpib7dulz8nao1i,,,,,Kakva je kraj mene biciklom prošla djevojka?,Kraj mene je biciklom prošla vrlo lijepa djevojka.,ai,,,27,,,
,Spremanje,canvas.Screen,2_0_2,,,,,,skipped,,171811,,,171810.29999998212,171811.19999998808,2024-07-30T16:44:20.315Z,171842.998,iw2l9YzZCx,incremental,anketa,6645cf40bc81b65c5faccf1d,participant,hcpib7dulz8nao1i,,,,,Kakva je kraj mene biciklom prošla djevojka?,Kraj mene je biciklom prošla vrlo lijepa djevojka.,ai,,,27,,,
,Question form,html.Form,2_0_3,,,,,,skipped,,171811.39999997616,,,171810.29999998212,171811.5,2024-07-30T16:44:20.315Z,171842.998,iw2l9YzZCx,incremental,anketa,6645cf40bc81b65c5faccf1d,participant,hcpib7dulz8nao1i,,,,,Kakva je kraj mene biciklom prošla djevojka?,Kraj mene je biciklom prošla vrlo lijepa djevojka.,ai,,,27,,,
,Answer indication,canvas.Screen,2_0_4,,,,,,skipped,,171813.29999998212,,,171810.29999998212,171813.39999997616,2024-07-30T16:44:20.317Z,171842.998,iw2l9YzZCx,incremental,anketa,6645cf40bc81b65c5faccf1d,participant,hcpib7dulz8nao1i,,,,,Kakva je kraj mene biciklom prošla djevojka?,Kraj mene je biciklom prošla vrlo lijepa djevojka.,ai,,,27,,,
,inter-stimulus,canvas.Screen,2_0_5,,,,,,response,9567.601999994047,171813.5,171842.998,171842.998,181410.59999999404,181660.59999999404,2024-07-30T16:44:30.164Z,181703.1,iw2l9YzZCx,incremental,anketa,6645cf40bc81b65c5faccf1d,participant,hcpib7dulz8nao1i,,,mousedown,,Kakva je kraj mene biciklom prošla djevojka?,Kraj mene je biciklom prošla vrlo lijepa djevojka.,ai,,,27,,,
,Sequence,flow.Sequence,2_0,,,,,,completion,25417.669999994047,155966.39999997616,155992.93,155992.93,181410.59999999404,181660.89999997616,2024-07-30T16:44:30.164Z,181703.1,iw2l9YzZCx,incremental,anketa,6645cf40bc81b65c5faccf1d,participant,hcpib7dulz8nao1i,,,,,Kakva je kraj mene biciklom prošla djevojka?,Kraj mene je biciklom prošla vrlo lijepa djevojka.,ai,,,27,,,
,context,canvas.Screen,2_1_0_0,,,,,,response,3417.4999999940337,181661.29999998212,181692.604,181703.1,185120.59999999404,185379.89999997616,2024-07-30T16:44:33.883Z,185405.396,iw2l9YzZCx,incremental,anketa,6645cf40bc81b65c5faccf1d,participant,hcpib7dulz8nao1i,,,click,,Ove godine su se Viktor i Marta vjenčao.,Victor i Marta vjenčali su se ove godine.,nf,,,38,,,
,Timer frame,html.Frame,2_1_0,,,,,,,3676.9999999940337,181661,181692.604,181703.1,185380.09999999404,185380.29999998212,2024-07-30T16:44:33.884Z,185405.396,iw2l9YzZCx,incremental,anketa,6645cf40bc81b65c5faccf1d,participant,hcpib7dulz8nao1i,,,,,Ove godine su se Viktor i Marta vjenčao.,Victor i Marta vjenčali su se ove godine.,nf,,,38,,,
,stimulus,canvas.Screen,2_1_1_0,,,,,,response,3669.4039999821107,185380.5,185405.396,185405.396,189074.79999998212,189322.69999998808,2024-07-30T16:44:37.826Z,189356.1,iw2l9YzZCx,incremental,anketa,6645cf40bc81b65c5faccf1d,participant,hcpib7dulz8nao1i,,5,click @5,,Ove godine su se Viktor i Marta vjenčao.,Victor i Marta vjenčali su se ove godine.,nf,,,38,,,
,Timer frame,html.Frame,2_1_1,,,,,,,3917.50399997615,185380.39999997616,185405.396,185405.396,189322.89999997616,189323,2024-07-30T16:44:37.827Z,189356.1,iw2l9YzZCx,incremental,anketa,6645cf40bc81b65c5faccf1d,participant,hcpib7dulz8nao1i,,,,,Ove godine su se Viktor i Marta vjenčao.,Victor i Marta vjenčali su se ove godine.,nf,,,38,,,
,Spremanje,canvas.Screen,2_1_2,,,,,,skipped,,189323.19999998808,,,189322.89999997616,189323.29999998212,2024-07-30T16:44:37.827Z,189356.1,iw2l9YzZCx,incremental,anketa,6645cf40bc81b65c5faccf1d,participant,hcpib7dulz8nao1i,,,,,Ove godine su se Viktor i Marta vjenčao.,Victor i Marta vjenčali su se ove godine.,nf,,,38,,,
,Question form,html.Form,2_1_3,,,,,,skipped,,189323.39999997616,,,189322.89999997616,189323.39999997616,2024-07-30T16:44:37.827Z,189356.1,iw2l9YzZCx,incremental,anketa,6645cf40bc81b65c5faccf1d,participant,hcpib7dulz8nao1i,,,,,Ove godine su se Viktor i Marta vjenčao.,Victor i Marta vjenčali su se ove godine.,nf,,,38,,,
,Answer indication,canvas.Screen,2_1_4,,,,,,skipped,,189324.89999997616,,,189322.89999997616,189325,2024-07-30T16:44:37.829Z,189356.1,iw2l9YzZCx,incremental,anketa,6645cf40bc81b65c5faccf1d,participant,hcpib7dulz8nao1i,,,,,Ove godine su se Viktor i Marta vjenčao.,Victor i Marta vjenčali su se ove godine.,nf,,,38,,,
,inter-stimulus,canvas.Screen,2_1_5,,,,,,response,3798.2999999761523,189325.09999999404,189345.328,189356.1,193154.39999997616,193419.89999997616,2024-07-30T16:44:41.923Z,193439.27,iw2l9YzZCx,incremental,anketa,6645cf40bc81b65c5faccf1d,participant,hcpib7dulz8nao1i,,,mousedown,,Ove godine su se Viktor i Marta vjenčao.,Victor i Marta vjenčali su se ove godine.,nf,,,38,,,
,Sequence,flow.Sequence,2_1,,,,,,completion,11451.299999976152,181661,181692.604,181703.1,193154.39999997616,193420.29999998212,2024-07-30T16:44:41.924Z,193439.27,iw2l9YzZCx,incremental,anketa,6645cf40bc81b65c5faccf1d,participant,hcpib7dulz8nao1i,,,,,Ove godine su se Viktor i Marta vjenčao.,Victor i Marta vjenčali su se ove godine.,nf,,,38,,,
,context,canvas.Screen,2_2_0_0,,,,,,response,6660.2300000000105,193420.59999999404,193439.27,193439.27,200099.5,200347.59999999404,2024-07-30T16:44:48.851Z,200391.228,iw2l9YzZCx,incremental,anketa,6645cf40bc81b65c5faccf1d,participant,hcpib7dulz8nao1i,,,click,,Na što je teško prestati besmisleno bacati novac?,Teško je prestati besmisleno bacati novac na tenisice.,si,,,13,,,
,Timer frame,html.Frame,2_2_0,,,,,,,6908.42999998809,193420.39999997616,193439.27,193439.27,200347.69999998808,200347.79999998212,2024-07-30T16:44:48.851Z,200391.228,iw2l9YzZCx,incremental,anketa,6645cf40bc81b65c5faccf1d,participant,hcpib7dulz8nao1i,,,,,Na što je teško prestati besmisleno bacati novac?,Teško je prestati besmisleno bacati novac na tenisice.,si,,,13,,,
,stimulus,canvas.Screen,2_2_1_0,,,,,,response,1092.0719999821158,200348.19999998808,200391.228,200391.228,201483.29999998212,201743.69999998808,2024-07-30T16:44:50.247Z,201794.9,iw2l9YzZCx,incremental,anketa,6645cf40bc81b65c5faccf1d,participant,hcpib7dulz8nao1i,,6,click @6,,Na što je teško prestati besmisleno bacati novac?,Teško je prestati besmisleno bacati novac na tenisice.,si,,,13,,,
,Timer frame,html.Frame,2_2_1,,,,,,,1352.8719999940367,200348,200391.228,200391.228,201744.09999999404,201744.09999999404,2024-07-30T16:44:50.248Z,201794.9,iw2l9YzZCx,incremental,anketa,6645cf40bc81b65c5faccf1d,participant,hcpib7dulz8nao1i,,,,,Na što je teško prestati besmisleno bacati novac?,Teško je prestati besmisleno bacati novac na tenisice.,si,,,13,,,
,Spremanje,canvas.Screen,2_2_2,,,,,,skipped,,201744.29999998212,,,201744.09999999404,201744.39999997616,2024-07-30T16:44:50.248Z,201794.9,iw2l9YzZCx,incremental,anketa,6645cf40bc81b65c5faccf1d,participant,hcpib7dulz8nao1i,,,,,Na što je teško prestati besmisleno bacati novac?,Teško je prestati besmisleno bacati novac na tenisice.,si,,,13,,,
,Question form,html.Form,2_2_3,,,,,,skipped,,201744.5,,,201744.09999999404,201744.69999998808,2024-07-30T16:44:50.248Z,201794.9,iw2l9YzZCx,incremental,anketa,6645cf40bc81b65c5faccf1d,participant,hcpib7dulz8nao1i,,,,,Na što je teško prestati besmisleno bacati novac?,Teško je prestati besmisleno bacati novac na tenisice.,si,,,13,,,
,Answer indication,canvas.Screen,2_2_4,,,,,,skipped,,201748.19999998808,,,201744.09999999404,201748.29999998212,2024-07-30T16:44:50.252Z,201794.9,iw2l9YzZCx,incremental,anketa,6645cf40bc81b65c5faccf1d,participant,hcpib7dulz8nao1i,,,,,Na što je teško prestati besmisleno bacati novac?,Teško je prestati besmisleno bacati novac na tenisice.,si,,,13,,,
,inter-stimulus,canvas.Screen,2_2_5,,,,,,response,3485.600000000006,201748.5,201782.896,201794.9,205280.5,205551.39999997616,2024-07-30T16:44:54.055Z,205589.1,iw2l9YzZCx,incremental,anketa,6645cf40bc81b65c5faccf1d,participant,hcpib7dulz8nao1i,,,mousedown,,Na što je teško prestati besmisleno bacati novac?,Teško je prestati besmisleno bacati novac na tenisice.,si,,,13,,,
,Sequence,flow.Sequence,2_2,,,,,,completion,11841.23000000001,193420.29999998212,193439.27,193439.27,205280.5,205551.69999998808,2024-07-30T16:44:54.055Z,205589.1,iw2l9YzZCx,incremental,anketa,6645cf40bc81b65c5faccf1d,participant,hcpib7dulz8nao1i,,,,,Na što je teško prestati besmisleno bacati novac?,Teško je prestati besmisleno bacati novac na tenisice.,si,,,13,,,
,context,canvas.Screen,2_3_0_0,,,,,,response,4954.999999994034,205552.19999998808,205578.082,205589.1,210544.09999999404,210765.79999998212,2024-07-30T16:44:59.269Z,210795.996,iw2l9YzZCx,incremental,anketa,6645cf40bc81b65c5faccf1d,participant,hcpib7dulz8nao1i,,,click,,Petar i Mara su jučer otišli u kino pogledati dobru komediju..,Jučer su Petar i Mara otišli u kino pogledati dobru komediju..,gf,35,35,46,,,
,Timer frame,html.Frame,2_3_0,,,,,,,5176.899999999994,205552,205578.082,205589.1,210766,210766.09999999404,2024-07-30T16:44:59.270Z,210795.996,iw2l9YzZCx,incremental,anketa,6645cf40bc81b65c5faccf1d,participant,hcpib7dulz8nao1i,,,,,Petar i Mara su jučer otišli u kino pogledati dobru komediju..,Jučer su Petar i Mara otišli u kino pogledati dobru komediju..,gf,35,35,46,,,
,stimulus,canvas.Screen,2_3_1_0,,,,,,response,3038.103999994026,210766.39999997616,210795.996,210795.996,213834.09999999404,214072.59999999404,2024-07-30T16:45:02.576Z,214106,iw2l9YzZCx,incremental,anketa,6645cf40bc81b65c5faccf1d,participant,hcpib7dulz8nao1i,,7,click @7,,Petar i Mara su jučer otišli u kino pogledati dobru komediju..,Jučer su Petar i Mara otišli u kino pogledati dobru komediju..,gf,35,35,46,,,
,Timer frame,html.Frame,2_3_1,,,,,,,3276.803999982105,210766.19999998808,210795.996,210795.996,214072.79999998212,214072.89999997616,2024-07-30T16:45:02.576Z,214106,iw2l9YzZCx,incremental,anketa,6645cf40bc81b65c5faccf1d,participant,hcpib7dulz8nao1i,,,,,Petar i Mara su jučer otišli u kino pogledati dobru komediju..,Jučer su Petar i Mara otišli u kino pogledati dobru komediju..,gf,35,35,46,,,
,Spremanje,canvas.Screen,2_3_2,,,,,,skipped,,214073.09999999404,,,214072.79999998212,214073.09999999404,2024-07-30T16:45:02.577Z,214106,iw2l9YzZCx,incremental,anketa,6645cf40bc81b65c5faccf1d,participant,hcpib7dulz8nao1i,,,,,Petar i Mara su jučer otišli u kino pogledati dobru komediju..,Jučer su Petar i Mara otišli u kino pogledati dobru komediju..,gf,35,35,46,,,
,Question form,html.Form,2_3_3,,,,,,skipped,,214073.19999998808,,,214072.79999998212,214073.29999998212,2024-07-30T16:45:02.577Z,214106,iw2l9YzZCx,incremental,anketa,6645cf40bc81b65c5faccf1d,participant,hcpib7dulz8nao1i,,,,,Petar i Mara su jučer otišli u kino pogledati dobru komediju..,Jučer su Petar i Mara otišli u kino pogledati dobru komediju..,gf,35,35,46,,,
,Answer indication,canvas.Screen,2_3_4,,,,,,skipped,,214074.5,,,214072.79999998212,214074.69999998808,2024-07-30T16:45:02.578Z,214106,iw2l9YzZCx,incremental,anketa,6645cf40bc81b65c5faccf1d,participant,hcpib7dulz8nao1i,,,,,Petar i Mara su jučer otišli u kino pogledati dobru komediju..,Jučer su Petar i Mara otišli u kino pogledati dobru komediju..,gf,35,35,46,,,
,inter-stimulus,canvas.Screen,2_3_5,,,,,,response,4301.299999982119,214074.69999998808,214093.23,214106,218407.29999998212,218664,2024-07-30T16:45:07.168Z,218700.9,iw2l9YzZCx,incremental,anketa,6645cf40bc81b65c5faccf1d,participant,hcpib7dulz8nao1i,,,mousedown,,Petar i Mara su jučer otišli u kino pogledati dobru komediju..,Jučer su Petar i Mara otišli u kino pogledati dobru komediju..,gf,35,35,46,,,
,Sequence,flow.Sequence,2_3,,,,,,completion,12818.199999982113,205551.89999997616,205578.082,205589.1,218407.29999998212,218664.29999998212,2024-07-30T16:45:07.168Z,218700.9,iw2l9YzZCx,incremental,anketa,6645cf40bc81b65c5faccf1d,participant,hcpib7dulz8nao1i,,,,,Petar i Mara su jučer otišli u kino pogledati dobru komediju..,Jučer su Petar i Mara otišli u kino pogledati dobru komediju..,gf,35,35,46,,,
,context,canvas.Screen,2_4_0_0,,,,,,response,2024.499999976164,218664.5,218689.15,218700.9,220725.39999997616,220955.79999998212,2024-07-30T16:45:09.459Z,220990.2,iw2l9YzZCx,incremental,anketa,6645cf40bc81b65c5faccf1d,participant,hcpib7dulz8nao1i,,,click,,Što želiš da pronaći nije bilo teško?,Pronaći apoteku nije bilo teško.,si,,,14,,,2305
,Timer frame,html.Frame,2_4_0,,,,,,,2254.999999976164,218664.39999997616,218689.15,218700.9,220955.89999997616,220956.09999999404,2024-07-30T16:45:09.460Z,220990.2,iw2l9YzZCx,incremental,anketa,6645cf40bc81b65c5faccf1d,participant,hcpib7dulz8nao1i,,,,,Što želiš da pronaći nije bilo teško?,Pronaći apoteku nije bilo teško.,si,,,14,,,2305
,stimulus,canvas.Screen,2_4_1_0,,,,,,response,5359.6999999761465,220956.5,220976.764,220990.2,226349.89999997616,226598,2024-07-30T16:45:15.101Z,226643.198,iw2l9YzZCx,incremental,anketa,6645cf40bc81b65c5faccf1d,participant,hcpib7dulz8nao1i,,3,click @3,,Što želiš da pronaći nije bilo teško?,Pronaći apoteku nije bilo teško.,si,,,14,,,2305
,Timer frame,html.Frame,2_4_1,,,,,,,5607.899999994028,220956.29999998212,220976.764,220990.2,226598.09999999404,226598.29999998212,2024-07-30T16:45:15.102Z,226643.198,iw2l9YzZCx,incremental,anketa,6645cf40bc81b65c5faccf1d,participant,hcpib7dulz8nao1i,,,,,Što želiš da pronaći nije bilo teško?,Pronaći apoteku nije bilo teško.,si,,,14,,,2305
,Spremanje,canvas.Screen,2_4_2,,,,,,skipped,,226598.29999998212,,,226598.09999999404,226598.5,2024-07-30T16:45:15.102Z,226643.198,iw2l9YzZCx,incremental,anketa,6645cf40bc81b65c5faccf1d,participant,hcpib7dulz8nao1i,,,,,Što želiš da pronaći nije bilo teško?,Pronaći apoteku nije bilo teško.,si,,,14,,,2305
,Question form,html.Form,2_4_3,,,,,,skipped,,226598.5,,,226598.09999999404,226598.59999999404,2024-07-30T16:45:15.102Z,226643.198,iw2l9YzZCx,incremental,anketa,6645cf40bc81b65c5faccf1d,participant,hcpib7dulz8nao1i,,,,,Što želiš da pronaći nije bilo teško?,Pronaći apoteku nije bilo teško.,si,,,14,,,2305
,Answer indication,canvas.Screen,2_4_4,,,,,,skipped,,226599.5,,,226598.09999999404,226599.59999999404,2024-07-30T16:45:15.103Z,226643.198,iw2l9YzZCx,incremental,anketa,6645cf40bc81b65c5faccf1d,participant,hcpib7dulz8nao1i,,,,,Što želiš da pronaći nije bilo teško?,Pronaći apoteku nije bilo teško.,si,,,14,,,2305
,inter-stimulus,canvas.Screen,2_4_5,,,,,,response,5812.001999988075,226599.69999998808,226643.198,226643.198,232455.19999998808,232704,2024-07-30T16:45:21.208Z,232726.288,iw2l9YzZCx,incremental,anketa,6645cf40bc81b65c5faccf1d,participant,hcpib7dulz8nao1i,,,mousedown,,Što želiš da pronaći nije bilo teško?,Pronaći apoteku nije bilo teško.,si,,,14,,,2305
,Sequence,flow.Sequence,2_4,,,,,,completion,13754.299999988085,218664.39999997616,218689.15,218700.9,232455.19999998808,232704.29999998212,2024-07-30T16:45:21.208Z,232726.288,iw2l9YzZCx,incremental,anketa,6645cf40bc81b65c5faccf1d,participant,hcpib7dulz8nao1i,,,,,Što želiš da pronaći nije bilo teško?,Pronaći apoteku nije bilo teško.,si,,,14,,,2305
,context,canvas.Screen,2_5_0_0,,,,,,response,5878.011999982118,232704.59999999404,232726.288,232726.288,238604.29999998212,238846.79999998212,2024-07-30T16:45:27.350Z,238873.532,iw2l9YzZCx,incremental,anketa,6645cf40bc81b65c5faccf1d,participant,hcpib7dulz8nao1i,,,click,,Što bismo voljeli da Drago napravi bez prigovora??,Voljeli bismo da Drago opere auto bez prigovora..,si,26,22,16,,,
,Timer frame,html.Frame,2_5_0,,,,,,,6120.7119999999995,232704.5,232726.288,232726.288,238847,238847.19999998808,2024-07-30T16:45:27.351Z,238873.532,iw2l9YzZCx,incremental,anketa,6645cf40bc81b65c5faccf1d,participant,hcpib7dulz8nao1i,,,,,Što bismo voljeli da Drago napravi bez prigovora??,Voljeli bismo da Drago opere auto bez prigovora..,si,26,22,16,,,
,stimulus,canvas.Screen,2_5_1_0,,,,,,response,3079.8679999761516,238847.59999999404,238873.532,238873.532,241953.39999997616,242183.09999999404,2024-07-30T16:45:30.687Z,242218,iw2l9YzZCx,incremental,anketa,6645cf40bc81b65c5faccf1d,participant,hcpib7dulz8nao1i,,7,click @7,,Što bismo voljeli da Drago napravi bez prigovora??,Voljeli bismo da Drago opere auto bez prigovora..,si,26,22,16,,,
,Timer frame,html.Frame,2_5_1,,,,,,,3309.6679999880726,238847.29999998212,238873.532,238873.532,242183.19999998808,242183.39999997616,2024-07-30T16:45:30.687Z,242218,iw2l9YzZCx,incremental,anketa,6645cf40bc81b65c5faccf1d,participant,hcpib7dulz8nao1i,,,,,Što bismo voljeli da Drago napravi bez prigovora??,Voljeli bismo da Drago opere auto bez prigovora..,si,26,22,16,,,
,Spremanje,canvas.Screen,2_5_2,,,,,,skipped,,242183.5,,,242183.19999998808,242183.59999999404,2024-07-30T16:45:30.687Z,242218,iw2l9YzZCx,incremental,anketa,6645cf40bc81b65c5faccf1d,participant,hcpib7dulz8nao1i,,,,,Što bismo voljeli da Drago napravi bez prigovora??,Voljeli bismo da Drago opere auto bez prigovora..,si,26,22,16,,,
,Question form,html.Form,2_5_3,,,,,,skipped,,242183.69999998808,,,242183.19999998808,242183.79999998212,2024-07-30T16:45:30.687Z,242218,iw2l9YzZCx,incremental,anketa,6645cf40bc81b65c5faccf1d,participant,hcpib7dulz8nao1i,,,,,Što bismo voljeli da Drago napravi bez prigovora??,Voljeli bismo da Drago opere auto bez prigovora..,si,26,22,16,,,
,Answer indication,canvas.Screen,2_5_4,,,,,,skipped,,242185.19999998808,,,242183.19999998808,242185.29999998212,2024-07-30T16:45:30.689Z,242218,iw2l9YzZCx,incremental,anketa,6645cf40bc81b65c5faccf1d,participant,hcpib7dulz8nao1i,,,,,Što bismo voljeli da Drago napravi bez prigovora??,Voljeli bismo da Drago opere auto bez prigovora..,si,26,22,16,,,
,inter-stimulus,canvas.Screen,2_5_5,,,,,,response,4277.299999982119,242185.39999997616,242206.562,242218,246495.29999998212,246747.5,2024-07-30T16:45:35.251Z,246782.1,iw2l9YzZCx,incremental,anketa,6645cf40bc81b65c5faccf1d,participant,hcpib7dulz8nao1i,,,mousedown,,Što bismo voljeli da Drago napravi bez prigovora??,Voljeli bismo da Drago opere auto bez prigovora..,si,26,22,16,,,
,Sequence,flow.Sequence,2_5,,,,,,completion,13769.011999982118,232704.29999998212,232726.288,232726.288,246495.29999998212,246747.79999998212,2024-07-30T16:45:35.251Z,246782.1,iw2l9YzZCx,incremental,anketa,6645cf40bc81b65c5faccf1d,participant,hcpib7dulz8nao1i,,,,,Što bismo voljeli da Drago napravi bez prigovora??,Voljeli bismo da Drago opere auto bez prigovora..,si,26,22,16,,,
,context,canvas.Screen,2_6_0_0,,,,,,response,2438.2999999761523,246748.19999998808,246767.818,246782.1,249220.39999997616,249475,2024-07-30T16:45:37.978Z,249518.3,iw2l9YzZCx,incremental,anketa,6645cf40bc81b65c5faccf1d,participant,hcpib7dulz8nao1i,,,click,,Što je kupio i majicu?,On je kupio tenisice I majicu.,csi,0,0,0,,,2305
,Timer frame,html.Frame,2_6_0,,,,,,,2692.9999999940337,246748,246767.818,246782.1,249475.09999999404,249475.29999998212,2024-07-30T16:45:37.979Z,249518.3,iw2l9YzZCx,incremental,anketa,6645cf40bc81b65c5faccf1d,participant,hcpib7dulz8nao1i,,,,,Što je kupio i majicu?,On je kupio tenisice I majicu.,csi,0,0,0,,,2305
,stimulus,canvas.Screen,2_6_1_0,,,,,,response,8122.899999988091,249475.5,249506.862,249518.3,257641.19999998808,257887.59999999404,2024-07-30T16:45:46.391Z,257922.3,iw2l9YzZCx,incremental,anketa,6645cf40bc81b65c5faccf1d,participant,hcpib7dulz8nao1i,,3,click @3,,Što je kupio i majicu?,On je kupio tenisice I majicu.,csi,0,0,0,,,2305
,Timer frame,html.Frame,2_6_1,,,,,,,8369.59999997617,249475.39999997616,249506.862,249518.3,257887.89999997616,257888.09999999404,2024-07-30T16:45:46.392Z,257922.3,iw2l9YzZCx,incremental,anketa,6645cf40bc81b65c5faccf1d,participant,hcpib7dulz8nao1i,,,,,Što je kupio i majicu?,On je kupio tenisice I majicu.,csi,0,0,0,,,2305
,Spremanje,canvas.Screen,2_6_2,,,,,,skipped,,257888.09999999404,,,257887.89999997616,257888.19999998808,2024-07-30T16:45:46.392Z,257922.3,iw2l9YzZCx,incremental,anketa,6645cf40bc81b65c5faccf1d,participant,hcpib7dulz8nao1i,,,,,Što je kupio i majicu?,On je kupio tenisice I majicu.,csi,0,0,0,,,2305
,Question form,html.Form,2_6_3,,,,,,skipped,,257888.29999998212,,,257887.89999997616,257888.5,2024-07-30T16:45:46.392Z,257922.3,iw2l9YzZCx,incremental,anketa,6645cf40bc81b65c5faccf1d,participant,hcpib7dulz8nao1i,,,,,Što je kupio i majicu?,On je kupio tenisice I majicu.,csi,0,0,0,,,2305
,Answer indication,canvas.Screen,2_6_4,,,,,,skipped,,257889.79999998212,,,257887.89999997616,257889.89999997616,2024-07-30T16:45:46.393Z,257922.3,iw2l9YzZCx,incremental,anketa,6645cf40bc81b65c5faccf1d,participant,hcpib7dulz8nao1i,,,,,Što je kupio i majicu?,On je kupio tenisice I majicu.,csi,0,0,0,,,2305
,inter-stimulus,canvas.Screen,2_6_5,,,,,,response,2996.799999994051,257890,257909.63,257922.3,260919.09999999404,261140.89999997616,2024-07-30T16:45:49.644Z,261175.2,iw2l9YzZCx,incremental,anketa,6645cf40bc81b65c5faccf1d,participant,hcpib7dulz8nao1i,,,mousedown,,Što je kupio i majicu?,On je kupio tenisice I majicu.,csi,0,0,0,,,2305
,Sequence,flow.Sequence,2_6,,,,,,completion,14136.999999994034,246747.89999997616,246767.818,246782.1,260919.09999999404,261141.19999998808,2024-07-30T16:45:49.645Z,261175.2,iw2l9YzZCx,incremental,anketa,6645cf40bc81b65c5faccf1d,participant,hcpib7dulz8nao1i,,,,,Što je kupio i majicu?,On je kupio tenisice I majicu.,csi,0,0,0,,,2305
,context,canvas.Screen,2_7_0_0,,,,,,response,3926.6999999761465,261141.39999997616,261172.17,261175.2,265101.89999997616,265338.7999999821,2024-07-30T16:45:53.842Z,265369.6,iw2l9YzZCx,incremental,anketa,6645cf40bc81b65c5faccf1d,participant,hcpib7dulz8nao1i,,,click,,U sutra ne samo svatko jedan može gledati.,Ne može svatko gledati u sutra.,nf,,,45,,,
,Timer frame,html.Frame,2_7_0,,,,,,,4163.6999999761465,261141.39999997616,261172.17,261175.2,265338.89999997616,265339,2024-07-30T16:45:53.843Z,265369.6,iw2l9YzZCx,incremental,anketa,6645cf40bc81b65c5faccf1d,participant,hcpib7dulz8nao1i,,,,,U sutra ne samo svatko jedan može gledati.,Ne može svatko gledati u sutra.,nf,,,45,,,
,stimulus,canvas.Screen,2_7_1_0,,,,,,response,6028.900000000023,265339.5,265356.164,265369.6,271398.5,271629,2024-07-30T16:46:00.132Z,271678.2,iw2l9YzZCx,incremental,anketa,6645cf40bc81b65c5faccf1d,participant,hcpib7dulz8nao1i,,1,click @1,,U sutra ne samo svatko jedan može gledati.,Ne može svatko gledati u sutra.,nf,,,45,,,
,Timer frame,html.Frame,2_7_1,,,,,,,6259.499999994063,265339.1999999881,265356.164,265369.6,271629.09999999404,271629.1999999881,2024-07-30T16:46:00.133Z,271678.2,iw2l9YzZCx,incremental,anketa,6645cf40bc81b65c5faccf1d,participant,hcpib7dulz8nao1i,,,,,U sutra ne samo svatko jedan može gledati.,Ne može svatko gledati u sutra.,nf,,,45,,,
,Spremanje,canvas.Screen,2_7_2,,,,,,skipped,,271629.39999997616,,,271629.09999999404,271629.5,2024-07-30T16:46:00.133Z,271678.2,iw2l9YzZCx,incremental,anketa,6645cf40bc81b65c5faccf1d,participant,hcpib7dulz8nao1i,,,,,U sutra ne samo svatko jedan može gledati.,Ne može svatko gledati u sutra.,nf,,,45,,,
,Question form,html.Form,2_7_3,,,,,,skipped,,271629.5,,,271629.09999999404,271629.59999999404,2024-07-30T16:46:00.133Z,271678.2,iw2l9YzZCx,incremental,anketa,6645cf40bc81b65c5faccf1d,participant,hcpib7dulz8nao1i,,,,,U sutra ne samo svatko jedan može gledati.,Ne može svatko gledati u sutra.,nf,,,45,,,
,Answer indication,canvas.Screen,2_7_4,,,,,,skipped,,271630.5,,,271629.09999999404,271630.59999999404,2024-07-30T16:46:00.134Z,271678.2,iw2l9YzZCx,incremental,anketa,6645cf40bc81b65c5faccf1d,participant,hcpib7dulz8nao1i,,,,,U sutra ne samo svatko jedan može gledati.,Ne može svatko gledati u sutra.,nf,,,45,,,
,inter-stimulus,canvas.Screen,2_7_5,,,,,,response,2036.099999982107,271630.6999999881,271665.53,271678.2,273714.2999999821,273964.6999999881,2024-07-30T16:46:02.468Z,273999.8,iw2l9YzZCx,incremental,anketa,6645cf40bc81b65c5faccf1d,participant,hcpib7dulz8nao1i,,,mousedown,,U sutra ne samo svatko jedan može gledati.,Ne može svatko gledati u sutra.,nf,,,45,,,
,Sequence,flow.Sequence,2_7,,,,,,completion,12539.099999982107,261141.29999998212,261172.17,261175.2,273714.2999999821,273968.5,2024-07-30T16:46:02.472Z,273999.8,iw2l9YzZCx,incremental,anketa,6645cf40bc81b65c5faccf1d,participant,hcpib7dulz8nao1i,,,,,U sutra ne samo svatko jedan može gledati.,Ne može svatko gledati u sutra.,nf,,,45,,,
,context,canvas.Screen,2_8_0_0,,,,,,response,3011.3999999880907,273969.09999999404,273994.774,273999.8,277011.1999999881,277250.39999997616,2024-07-30T16:46:05.754Z,277297.9,iw2l9YzZCx,incremental,anketa,6645cf40bc81b65c5faccf1d,participant,hcpib7dulz8nao1i,,,click,,Odakle si pješke ići prema Zadru?,Ideš pješke od Splita prema Zadru.,nf,,,44,,,
,Timer frame,html.Frame,2_8_0,,,,,,,3250.799999994051,273968.7999999821,273994.774,273999.8,277250.59999999404,277250.7999999821,2024-07-30T16:46:05.754Z,277297.9,iw2l9YzZCx,incremental,anketa,6645cf40bc81b65c5faccf1d,participant,hcpib7dulz8nao1i,,,,,Odakle si pješke ići prema Zadru?,Ideš pješke od Splita prema Zadru.,nf,,,44,,,
,stimulus,canvas.Screen,2_8_1_0,,,,,,response,7653.199999994016,277251.1999999881,277285.13,277297.9,284951.09999999404,285197.09999999404,2024-07-30T16:46:13.701Z,285243.928,iw2l9YzZCx,incremental,anketa,6645cf40bc81b65c5faccf1d,participant,hcpib7dulz8nao1i,,3,click @3,,Odakle si pješke ići prema Zadru?,Ideš pješke od Splita prema Zadru.,nf,,,44,,,
,Timer frame,html.Frame,2_8_1,,,,,,,7899.899999982095,277251,277285.13,277297.9,285197.7999999821,285198,2024-07-30T16:46:13.702Z,285243.928,iw2l9YzZCx,incremental,anketa,6645cf40bc81b65c5faccf1d,participant,hcpib7dulz8nao1i,,,,,Odakle si pješke ići prema Zadru?,Ideš pješke od Splita prema Zadru.,nf,,,44,,,
,Spremanje,canvas.Screen,2_8_2,,,,,,skipped,,285198.09999999404,,,285197.7999999821,285198.59999999404,2024-07-30T16:46:13.702Z,285243.928,iw2l9YzZCx,incremental,anketa,6645cf40bc81b65c5faccf1d,participant,hcpib7dulz8nao1i,,,,,Odakle si pješke ići prema Zadru?,Ideš pješke od Splita prema Zadru.,nf,,,44,,,
,Question form,html.Form,2_8_3,,,,,,skipped,,285198.6999999881,,,285197.7999999821,285198.7999999821,2024-07-30T16:46:13.702Z,285243.928,iw2l9YzZCx,incremental,anketa,6645cf40bc81b65c5faccf1d,participant,hcpib7dulz8nao1i,,,,,Odakle si pješke ići prema Zadru?,Ideš pješke od Splita prema Zadru.,nf,,,44,,,
,Answer indication,canvas.Screen,2_8_4,,,,,,skipped,,285210.59999999404,,,285197.7999999821,285210.59999999404,2024-07-30T16:46:13.714Z,285243.928,iw2l9YzZCx,incremental,anketa,6645cf40bc81b65c5faccf1d,participant,hcpib7dulz8nao1i,,,,,Odakle si pješke ići prema Zadru?,Ideš pješke od Splita prema Zadru.,nf,,,44,,,
,inter-stimulus,canvas.Screen,2_8_5,,,,,,response,3417.671999994025,285210.6999999881,285243.928,285243.928,288661.59999999404,288902.59999999404,2024-07-30T16:46:17.406Z,288937.1,iw2l9YzZCx,incremental,anketa,6645cf40bc81b65c5faccf1d,participant,hcpib7dulz8nao1i,,,mousedown,,Odakle si pješke ići prema Zadru?,Ideš pješke od Splita prema Zadru.,nf,,,44,,,
,Sequence,flow.Sequence,2_8,,,,,,completion,14661.799999994051,273968.6999999881,273994.774,273999.8,288661.59999999404,288902.89999997616,2024-07-30T16:46:17.406Z,288937.1,iw2l9YzZCx,incremental,anketa,6645cf40bc81b65c5faccf1d,participant,hcpib7dulz8nao1i,,,,,Odakle si pješke ići prema Zadru?,Ideš pješke od Splita prema Zadru.,nf,,,44,,,
,context,canvas.Screen,2_9_0_0,,,,,,response,3393.699999982142,288903.2999999821,288927.114,288937.1,292330.7999999821,292591,2024-07-30T16:46:21.095Z,292635.4,iw2l9YzZCx,incremental,anketa,6645cf40bc81b65c5faccf1d,participant,hcpib7dulz8nao1i,,,click,,Kolike su trenutno plaće u hrvatskom sportu?,Kolike plaće su trenutno u hrvatskom sportu?,lbc,,,35,,,
,Timer frame,html.Frame,2_9_0,,,,,,,3654.199999982142,288903.09999999404,288927.114,288937.1,292591.2999999821,292591.39999997616,2024-07-30T16:46:21.095Z,292635.4,iw2l9YzZCx,incremental,anketa,6645cf40bc81b65c5faccf1d,participant,hcpib7dulz8nao1i,,,,,Kolike su trenutno plaće u hrvatskom sportu?,Kolike plaće su trenutno u hrvatskom sportu?,lbc,,,35,,,
,stimulus,canvas.Screen,2_9_1_0,,,,,,response,3610.499999976135,292591.6999999881,292622.83,292635.4,296245.89999997616,296497.7999999821,2024-07-30T16:46:25.001Z,296542.5,iw2l9YzZCx,incremental,anketa,6645cf40bc81b65c5faccf1d,participant,hcpib7dulz8nao1i,,7,click @7,,Kolike su trenutno plaće u hrvatskom sportu?,Kolike plaće su trenutno u hrvatskom sportu?,lbc,,,35,,,
,Timer frame,html.Frame,2_9_1,,,,,,,3862.5999999999767,292591.5,292622.83,292635.4,296498,296498.1999999881,2024-07-30T16:46:25.002Z,296542.5,iw2l9YzZCx,incremental,anketa,6645cf40bc81b65c5faccf1d,participant,hcpib7dulz8nao1i,,,,,Kolike su trenutno plaće u hrvatskom sportu?,Kolike plaće su trenutno u hrvatskom sportu?,lbc,,,35,,,
,Spremanje,canvas.Screen,2_9_2,,,,,,skipped,,296498.2999999821,,,296498,296498.2999999821,2024-07-30T16:46:25.002Z,296542.5,iw2l9YzZCx,incremental,anketa,6645cf40bc81b65c5faccf1d,participant,hcpib7dulz8nao1i,,,,,Kolike su trenutno plaće u hrvatskom sportu?,Kolike plaće su trenutno u hrvatskom sportu?,lbc,,,35,,,
,Question form,html.Form,2_9_3,,,,,,skipped,,296498.39999997616,,,296498,296498.89999997616,2024-07-30T16:46:25.002Z,296542.5,iw2l9YzZCx,incremental,anketa,6645cf40bc81b65c5faccf1d,participant,hcpib7dulz8nao1i,,,,,Kolike su trenutno plaće u hrvatskom sportu?,Kolike plaće su trenutno u hrvatskom sportu?,lbc,,,35,,,
,Answer indication,canvas.Screen,2_9_4,,,,,,skipped,,296506.39999997616,,,296498,296506.59999999404,2024-07-30T16:46:25.010Z,296542.5,iw2l9YzZCx,incremental,anketa,6645cf40bc81b65c5faccf1d,participant,hcpib7dulz8nao1i,,,,,Kolike su trenutno plaće u hrvatskom sportu?,Kolike plaće su trenutno u hrvatskom sportu?,lbc,,,35,,,
,inter-stimulus,canvas.Screen,2_9_5,,,,,,response,2912.899999976158,296506.6999999881,296529.73,296542.5,299455.39999997616,299682.6999999881,2024-07-30T16:46:28.186Z,299760.6,iw2l9YzZCx,incremental,anketa,6645cf40bc81b65c5faccf1d,participant,hcpib7dulz8nao1i,,,mousedown,,Kolike su trenutno plaće u hrvatskom sportu?,Kolike plaće su trenutno u hrvatskom sportu?,lbc,,,35,,,
,Sequence,flow.Sequence,2_9,,,,,,completion,10518.299999976181,288903,288927.114,288937.1,299455.39999997616,299682.89999997616,2024-07-30T16:46:28.187Z,299760.6,iw2l9YzZCx,incremental,anketa,6645cf40bc81b65c5faccf1d,participant,hcpib7dulz8nao1i,,,,,Kolike su trenutno plaće u hrvatskom sportu?,Kolike plaće su trenutno u hrvatskom sportu?,lbc,,,35,,,
,context,canvas.Screen,2_10_0_0,,,,,,response,4206.099999988102,299687.2999999821,299742.372,299760.6,303966.6999999881,304214.89999997616,2024-07-30T16:46:32.718Z,304244.4,iw2l9YzZCx,incremental,anketa,6645cf40bc81b65c5faccf1d,participant,hcpib7dulz8nao1i,,,click,,"Što je kupio tata, i spremila je majka?","Tata je kupio meso, a majka je spremila salatu.",csi,,,7,,,
,Timer frame,html.Frame,2_10_0,,,,,,,4454.499999994063,299684.59999999404,299742.372,299760.6,304215.09999999404,304215.2999999821,2024-07-30T16:46:32.719Z,304244.4,iw2l9YzZCx,incremental,anketa,6645cf40bc81b65c5faccf1d,participant,hcpib7dulz8nao1i,,,,,"Što je kupio tata, i spremila je majka?","Tata je kupio meso, a majka je spremila salatu.",csi,,,7,,,
,stimulus,canvas.Screen,2_10_1_0,,,,,,response,7981.899999982095,304215.59999999404,304233.628,304244.4,312226.2999999821,312474.39999997616,2024-07-30T16:46:40.978Z,312522.1,iw2l9YzZCx,incremental,anketa,6645cf40bc81b65c5faccf1d,participant,hcpib7dulz8nao1i,,3,click @3,,"Što je kupio tata, i spremila je majka?","Tata je kupio meso, a majka je spremila salatu.",csi,,,7,,,
,Timer frame,html.Frame,2_10_1,,,,,,,8230.099999999977,304215.5,304233.628,304244.4,312474.5,312474.6999999881,2024-07-30T16:46:40.978Z,312522.1,iw2l9YzZCx,incremental,anketa,6645cf40bc81b65c5faccf1d,participant,hcpib7dulz8nao1i,,,,,"Što je kupio tata, i spremila je majka?","Tata je kupio meso, a majka je spremila salatu.",csi,,,7,,,
,Spremanje,canvas.Screen,2_10_2,,,,,,skipped,,312474.7999999821,,,312474.5,312474.7999999821,2024-07-30T16:46:40.978Z,312522.1,iw2l9YzZCx,incremental,anketa,6645cf40bc81b65c5faccf1d,participant,hcpib7dulz8nao1i,,,,,"Što je kupio tata, i spremila je majka?","Tata je kupio meso, a majka je spremila salatu.",csi,,,7,,,
,Question form,html.Form,2_10_3,,,,,,skipped,,312474.89999997616,,,312474.5,312475,2024-07-30T16:46:40.979Z,312522.1,iw2l9YzZCx,incremental,anketa,6645cf40bc81b65c5faccf1d,participant,hcpib7dulz8nao1i,,,,,"Što je kupio tata, i spremila je majka?","Tata je kupio meso, a majka je spremila salatu.",csi,,,7,,,
,Answer indication,canvas.Screen,2_10_4,,,,,,skipped,,312476.5,,,312474.5,312476.59999999404,2024-07-30T16:46:40.980Z,312522.1,iw2l9YzZCx,incremental,anketa,6645cf40bc81b65c5faccf1d,participant,hcpib7dulz8nao1i,,,,,"Što je kupio tata, i spremila je majka?","Tata je kupio meso, a majka je spremila salatu.",csi,,,7,,,
,inter-stimulus,canvas.Screen,2_10_5,,,,,,response,2968.499999994063,312476.6999999881,312507.998,312522.1,315490.59999999404,315766.89999997616,2024-07-30T16:46:44.270Z,315804.3,iw2l9YzZCx,incremental,anketa,6645cf40bc81b65c5faccf1d,participant,hcpib7dulz8nao1i,,,mousedown,,"Što je kupio tata, i spremila je majka?","Tata je kupio meso, a majka je spremila salatu.",csi,,,7,,,
,Sequence,flow.Sequence,2_10,,,,,,completion,15729.999999994063,299683,299742.372,299760.6,315490.59999999404,315767.2999999821,2024-07-30T16:46:44.271Z,315804.3,iw2l9YzZCx,incremental,anketa,6645cf40bc81b65c5faccf1d,participant,hcpib7dulz8nao1i,,,,,"Što je kupio tata, i spremila je majka?","Tata je kupio meso, a majka je spremila salatu.",csi,,,7,,,
,context,canvas.Screen,2_11_0_0,,,,,,response,4853.799999994051,315767.89999997616,315788.636,315804.3,320658.09999999404,320906.59999999404,2024-07-30T16:46:49.410Z,320959.9,iw2l9YzZCx,incremental,anketa,6645cf40bc81b65c5faccf1d,participant,hcpib7dulz8nao1i,,,click,,"Koliko čega Luka je zaboravio, on mi je posudio?","Luka je zaboravio, koliko mi je novca posudio.",ai,,,28,,,
,Timer frame,html.Frame,2_11_0,,,,,,,5102.49999998213,315767.59999999404,315788.636,315804.3,320906.7999999821,320908.6999999881,2024-07-30T16:46:49.412Z,320959.9,iw2l9YzZCx,incremental,anketa,6645cf40bc81b65c5faccf1d,participant,hcpib7dulz8nao1i,,,,,"Koliko čega Luka je zaboravio, on mi je posudio?","Luka je zaboravio, koliko mi je novca posudio.",ai,,,28,,,
,stimulus,canvas.Screen,2_11_1_0,,,,,,response,4314.099999999977,320909.09999999404,320948.462,320959.9,325274,325522.5,2024-07-30T16:46:54.026Z,325559.396,iw2l9YzZCx,incremental,anketa,6645cf40bc81b65c5faccf1d,participant,hcpib7dulz8nao1i,,1,click @1,,"Koliko čega Luka je zaboravio, on mi je posudio?","Luka je zaboravio, koliko mi je novca posudio.",ai,,,28,,,
,Timer frame,html.Frame,2_11_1,,,,,,,4562.799999988056,320908.89999997616,320948.462,320959.9,325522.6999999881,325522.7999999821,2024-07-30T16:46:54.026Z,325559.396,iw2l9YzZCx,incremental,anketa,6645cf40bc81b65c5faccf1d,participant,hcpib7dulz8nao1i,,,,,"Koliko čega Luka je zaboravio, on mi je posudio?","Luka je zaboravio, koliko mi je novca posudio.",ai,,,28,,,
,Spremanje,canvas.Screen,2_11_2,,,,,,skipped,,325522.89999997616,,,325522.6999999881,325523,2024-07-30T16:46:54.026Z,325559.396,iw2l9YzZCx,incremental,anketa,6645cf40bc81b65c5faccf1d,participant,hcpib7dulz8nao1i,,,,,"Koliko čega Luka je zaboravio, on mi je posudio?","Luka je zaboravio, koliko mi je novca posudio.",ai,,,28,,,
,Question form,html.Form,2_11_3,,,,,,skipped,,325523,,,325522.6999999881,325523.09999999404,2024-07-30T16:46:54.027Z,325559.396,iw2l9YzZCx,incremental,anketa,6645cf40bc81b65c5faccf1d,participant,hcpib7dulz8nao1i,,,,,"Koliko čega Luka je zaboravio, on mi je posudio?","Luka je zaboravio, koliko mi je novca posudio.",ai,,,28,,,
,Answer indication,canvas.Screen,2_11_4,,,,,,skipped,,325524.59999999404,,,325522.6999999881,325524.6999999881,2024-07-30T16:46:54.028Z,325559.396,iw2l9YzZCx,incremental,anketa,6645cf40bc81b65c5faccf1d,participant,hcpib7dulz8nao1i,,,,,"Koliko čega Luka je zaboravio, on mi je posudio?","Luka je zaboravio, koliko mi je novca posudio.",ai,,,28,,,
,inter-stimulus,canvas.Screen,2_11_5,,,,,,response,2980.9039999821107,325524.7999999821,325559.396,325559.396,328540.2999999821,328757.09999999404,2024-07-30T16:46:57.261Z,328792.6,iw2l9YzZCx,incremental,anketa,6645cf40bc81b65c5faccf1d,participant,hcpib7dulz8nao1i,,,mousedown,,"Koliko čega Luka je zaboravio, on mi je posudio?","Luka je zaboravio, koliko mi je novca posudio.",ai,,,28,,,
,Sequence,flow.Sequence,2_11,,,,,,completion,12735.99999998213,315767.5,315788.636,315804.3,328540.2999999821,328757.39999997616,2024-07-30T16:46:57.261Z,328792.6,iw2l9YzZCx,incremental,anketa,6645cf40bc81b65c5faccf1d,participant,hcpib7dulz8nao1i,,,,,"Koliko čega Luka je zaboravio, on mi je posudio?","Luka je zaboravio, koliko mi je novca posudio.",ai,,,28,,,
,context,canvas.Screen,2_12_0_0,,,,,,response,3654.199999982142,328757.59999999404,328792.6,328792.6,332446.7999999821,332720.5,2024-07-30T16:47:01.224Z,332745.332,iw2l9YzZCx,incremental,anketa,6645cf40bc81b65c5faccf1d,participant,hcpib7dulz8nao1i,,,click,,Što si saznao tužnu vijest da je Petar izgubio u podzemnoj??,Saznao si tužnu vijest da je Petar izgubio putovnicu u podzemnoj..,cnp,38,34,9,,,
,Timer frame,html.Frame,2_12_0,,,,,,,3928.0999999881024,328757.5,328792.6,328792.6,332720.6999999881,332720.6999999881,2024-07-30T16:47:01.224Z,332745.332,iw2l9YzZCx,incremental,anketa,6645cf40bc81b65c5faccf1d,participant,hcpib7dulz8nao1i,,,,,Što si saznao tužnu vijest da je Petar izgubio u podzemnoj??,Saznao si tužnu vijest da je Petar izgubio putovnicu u podzemnoj..,cnp,38,34,9,,,
,stimulus,canvas.Screen,2_12_1_0,,,,,,response,4688.668000000005,332721,332745.332,332745.332,337434,337675,2024-07-30T16:47:06.179Z,337725.764,iw2l9YzZCx,incremental,anketa,6645cf40bc81b65c5faccf1d,participant,hcpib7dulz8nao1i,,1,click @1,,Što si saznao tužnu vijest da je Petar izgubio u podzemnoj??,Saznao si tužnu vijest da je Petar izgubio putovnicu u podzemnoj..,cnp,38,34,9,,,
,Timer frame,html.Frame,2_12_1,,,,,,,4929.867999988084,332720.89999997616,332745.332,332745.332,337675.1999999881,337675.39999997616,2024-07-30T16:47:06.179Z,337725.764,iw2l9YzZCx,incremental,anketa,6645cf40bc81b65c5faccf1d,participant,hcpib7dulz8nao1i,,,,,Što si saznao tužnu vijest da je Petar izgubio u podzemnoj??,Saznao si tužnu vijest da je Petar izgubio putovnicu u podzemnoj..,cnp,38,34,9,,,
,Spremanje,canvas.Screen,2_12_2,,,,,,skipped,,337675.5,,,337675.1999999881,337675.5,2024-07-30T16:47:06.179Z,337725.764,iw2l9YzZCx,incremental,anketa,6645cf40bc81b65c5faccf1d,participant,hcpib7dulz8nao1i,,,,,Što si saznao tužnu vijest da je Petar izgubio u podzemnoj??,Saznao si tužnu vijest da je Petar izgubio putovnicu u podzemnoj..,cnp,38,34,9,,,
,Question form,html.Form,2_12_3,,,,,,skipped,,337675.59999999404,,,337675.1999999881,337675.7999999821,2024-07-30T16:47:06.179Z,337725.764,iw2l9YzZCx,incremental,anketa,6645cf40bc81b65c5faccf1d,participant,hcpib7dulz8nao1i,,,,,Što si saznao tužnu vijest da je Petar izgubio u podzemnoj??,Saznao si tužnu vijest da je Petar izgubio putovnicu u podzemnoj..,cnp,38,34,9,,,
,Answer indication,canvas.Screen,2_12_4,,,,,,skipped,,337676.59999999404,,,337675.1999999881,337676.7999999821,2024-07-30T16:47:06.180Z,337725.764,iw2l9YzZCx,incremental,anketa,6645cf40bc81b65c5faccf1d,participant,hcpib7dulz8nao1i,,,,,Što si saznao tužnu vijest da je Petar izgubio u podzemnoj??,Saznao si tužnu vijest da je Petar izgubio putovnicu u podzemnoj..,cnp,38,34,9,,,
,inter-stimulus,canvas.Screen,2_12_5,,,,,,response,2111.835999994015,337676.7999999821,337725.764,337725.764,339837.59999999404,340084.09999999404,2024-07-30T16:47:08.588Z,340109.002,iw2l9YzZCx,incremental,anketa,6645cf40bc81b65c5faccf1d,participant,hcpib7dulz8nao1i,,,mousedown,,Što si saznao tužnu vijest da je Petar izgubio u podzemnoj??,Saznao si tužnu vijest da je Petar izgubio putovnicu u podzemnoj..,cnp,38,34,9,,,
,Sequence,flow.Sequence,2_12,,,,,,completion,11044.999999994063,328757.39999997616,328792.6,328792.6,339837.59999999404,340084.2999999821,2024-07-30T16:47:08.588Z,340109.002,iw2l9YzZCx,incremental,anketa,6645cf40bc81b65c5faccf1d,participant,hcpib7dulz8nao1i,,,,,Što si saznao tužnu vijest da je Petar izgubio u podzemnoj??,Saznao si tužnu vijest da je Petar izgubio putovnicu u podzemnoj..,cnp,38,34,9,,,
,context,canvas.Screen,2_13_0_0,,,,,,response,4711.89799997618,340084.6999999881,340109.002,340109.002,344820.89999997616,345068.2999999821,2024-07-30T16:47:13.572Z,345103.3,iw2l9YzZCx,incremental,anketa,6645cf40bc81b65c5faccf1d,participant,hcpib7dulz8nao1i,,,click,,Tko ono da je prodao svoj stan za toliki novac nevjerojatno je??,Ono da je Goran prodao svoj stan za toliki novac nevjerojatno je..,si,30,32,17,,,
,Timer frame,html.Frame,2_13_0,,,,,,,4959.39799997618,340084.5,340109.002,340109.002,345068.39999997616,345068.59999999404,2024-07-30T16:47:13.572Z,345103.3,iw2l9YzZCx,incremental,anketa,6645cf40bc81b65c5faccf1d,participant,hcpib7dulz8nao1i,,,,,Tko ono da je prodao svoj stan za toliki novac nevjerojatno je??,Ono da je Goran prodao svoj stan za toliki novac nevjerojatno je..,si,30,32,17,,,
,stimulus,canvas.Screen,2_13_1_0,,,,,,response,4549.399999988091,345068.7999999821,345090.064,345103.3,349652.6999999881,349892.2999999821,2024-07-30T16:47:18.396Z,349927.562,iw2l9YzZCx,incremental,anketa,6645cf40bc81b65c5faccf1d,participant,hcpib7dulz8nao1i,,1,click @1,,Tko ono da je prodao svoj stan za toliki novac nevjerojatno je??,Ono da je Goran prodao svoj stan za toliki novac nevjerojatno je..,si,30,32,17,,,
,Timer frame,html.Frame,2_13_1,,,,,,,4789.200000000012,345068.59999999404,345090.064,345103.3,349892.5,349892.59999999404,2024-07-30T16:47:18.396Z,349927.562,iw2l9YzZCx,incremental,anketa,6645cf40bc81b65c5faccf1d,participant,hcpib7dulz8nao1i,,,,,Tko ono da je prodao svoj stan za toliki novac nevjerojatno je??,Ono da je Goran prodao svoj stan za toliki novac nevjerojatno je..,si,30,32,17,,,
,Spremanje,canvas.Screen,2_13_2,,,,,,skipped,,349892.7999999821,,,349892.5,349892.7999999821,2024-07-30T16:47:18.396Z,349927.562,iw2l9YzZCx,incremental,anketa,6645cf40bc81b65c5faccf1d,participant,hcpib7dulz8nao1i,,,,,Tko ono da je prodao svoj stan za toliki novac nevjerojatno je??,Ono da je Goran prodao svoj stan za toliki novac nevjerojatno je..,si,30,32,17,,,
,Question form,html.Form,2_13_3,,,,,,skipped,,349892.89999997616,,,349892.5,349893,2024-07-30T16:47:18.397Z,349927.562,iw2l9YzZCx,incremental,anketa,6645cf40bc81b65c5faccf1d,participant,hcpib7dulz8nao1i,,,,,Tko ono da je prodao svoj stan za toliki novac nevjerojatno je??,Ono da je Goran prodao svoj stan za toliki novac nevjerojatno je..,si,30,32,17,,,
,Answer indication,canvas.Screen,2_13_4,,,,,,skipped,,349894.39999997616,,,349892.5,349894.39999997616,2024-07-30T16:47:18.398Z,349927.562,iw2l9YzZCx,incremental,anketa,6645cf40bc81b65c5faccf1d,participant,hcpib7dulz8nao1i,,,,,Tko ono da je prodao svoj stan za toliki novac nevjerojatno je??,Ono da je Goran prodao svoj stan za toliki novac nevjerojatno je..,si,30,32,17,,,
,inter-stimulus,canvas.Screen,2_13_5,,,,,,response,2443.7379999821424,349894.59999999404,349927.562,349927.562,352371.2999999821,352609.89999997616,2024-07-30T16:47:21.113Z,352644.8,iw2l9YzZCx,incremental,anketa,6645cf40bc81b65c5faccf1d,participant,hcpib7dulz8nao1i,,,mousedown,,Tko ono da je prodao svoj stan za toliki novac nevjerojatno je??,Ono da je Goran prodao svoj stan za toliki novac nevjerojatno je..,si,30,32,17,,,
,Sequence,flow.Sequence,2_13,,,,,,completion,12262.29799998214,340084.5,340109.002,340109.002,352371.2999999821,352610.1999999881,2024-07-30T16:47:21.114Z,352644.8,iw2l9YzZCx,incremental,anketa,6645cf40bc81b65c5faccf1d,participant,hcpib7dulz8nao1i,,,,,Tko ono da je prodao svoj stan za toliki novac nevjerojatno je??,Ono da je Goran prodao svoj stan za toliki novac nevjerojatno je..,si,30,32,17,,,
,context,canvas.Screen,2_14_0_0,,,,,,response,3725.3999999880907,352610.59999999404,352644.12,352644.8,356370.1999999881,356601.39999997616,2024-07-30T16:47:25.105Z,356631.7,iw2l9YzZCx,incremental,anketa,6645cf40bc81b65c5faccf1d,participant,hcpib7dulz8nao1i,,,click,,"Što žele da Ivan pripremi, a Nikola da posprema kuću??","Žele da Ivan pripremi juhu, a Nikola da posprema kuću..",csi,26,27,3,,,
,Timer frame,html.Frame,2_14_0,,,,,,,3956.7000000000116,352610.39999997616,352644.12,352644.8,356601.5,356601.59999999404,2024-07-30T16:47:25.105Z,356631.7,iw2l9YzZCx,incremental,anketa,6645cf40bc81b65c5faccf1d,participant,hcpib7dulz8nao1i,,,,,"Što žele da Ivan pripremi, a Nikola da posprema kuću??","Žele da Ivan pripremi juhu, a Nikola da posprema kuću..",csi,26,27,3,,,
,stimulus,canvas.Screen,2_14_1_0,,,,,,response,5567.899999994028,356601.89999997616,356617.698,356631.7,362199.59999999404,362456,2024-07-30T16:47:30.960Z,362507.8,iw2l9YzZCx,incremental,anketa,6645cf40bc81b65c5faccf1d,participant,hcpib7dulz8nao1i,,2,click @2,,"Što žele da Ivan pripremi, a Nikola da posprema kuću??","Žele da Ivan pripremi juhu, a Nikola da posprema kuću..",csi,26,27,3,,,
,Timer frame,html.Frame,2_14_1,,,,,,,5824.499999988067,356601.6999999881,356617.698,356631.7,362456.1999999881,362456.1999999881,2024-07-30T16:47:30.960Z,362507.8,iw2l9YzZCx,incremental,anketa,6645cf40bc81b65c5faccf1d,participant,hcpib7dulz8nao1i,,,,,"Što žele da Ivan pripremi, a Nikola da posprema kuću??","Žele da Ivan pripremi juhu, a Nikola da posprema kuću..",csi,26,27,3,,,
,Spremanje,canvas.Screen,2_14_2,,,,,,skipped,,362456.39999997616,,,362456.1999999881,362456.5,2024-07-30T16:47:30.960Z,362507.8,iw2l9YzZCx,incremental,anketa,6645cf40bc81b65c5faccf1d,participant,hcpib7dulz8nao1i,,,,,"Što žele da Ivan pripremi, a Nikola da posprema kuću??","Žele da Ivan pripremi juhu, a Nikola da posprema kuću..",csi,26,27,3,,,
,Question form,html.Form,2_14_3,,,,,,skipped,,362456.5,,,362456.1999999881,362456.59999999404,2024-07-30T16:47:30.960Z,362507.8,iw2l9YzZCx,incremental,anketa,6645cf40bc81b65c5faccf1d,participant,hcpib7dulz8nao1i,,,,,"Što žele da Ivan pripremi, a Nikola da posprema kuću??","Žele da Ivan pripremi juhu, a Nikola da posprema kuću..",csi,26,27,3,,,
,Answer indication,canvas.Screen,2_14_4,,,,,,skipped,,362457.39999997616,,,362456.1999999881,362457.5,2024-07-30T16:47:30.961Z,362507.8,iw2l9YzZCx,incremental,anketa,6645cf40bc81b65c5faccf1d,participant,hcpib7dulz8nao1i,,,,,"Što žele da Ivan pripremi, a Nikola da posprema kuću??","Žele da Ivan pripremi juhu, a Nikola da posprema kuću..",csi,26,27,3,,,
,inter-stimulus,canvas.Screen,2_14_5,,,,,,response,3415.59999997617,362457.59999999404,362493.698,362507.8,365923.39999997616,366183.7999999821,2024-07-30T16:47:34.687Z,366207.652,iw2l9YzZCx,incremental,anketa,6645cf40bc81b65c5faccf1d,participant,hcpib7dulz8nao1i,,,mousedown,,"Što žele da Ivan pripremi, a Nikola da posprema kuću??","Žele da Ivan pripremi juhu, a Nikola da posprema kuću..",csi,26,27,3,,,
,Sequence,flow.Sequence,2_14,,,,,,completion,13278.59999997617,352610.39999997616,352644.12,352644.8,365923.39999997616,366184.09999999404,2024-07-30T16:47:34.688Z,366207.652,iw2l9YzZCx,incremental,anketa,6645cf40bc81b65c5faccf1d,participant,hcpib7dulz8nao1i,,,,,"Što žele da Ivan pripremi, a Nikola da posprema kuću??","Žele da Ivan pripremi juhu, a Nikola da posprema kuću..",csi,26,27,3,,,
,context,canvas.Screen,2_15_0_0,,,,,,response,2259.347999999998,366184.39999997616,366207.652,366207.652,368467,368697.59999999404,2024-07-30T16:47:37.201Z,368734.8,iw2l9YzZCx,incremental,anketa,6645cf40bc81b65c5faccf1d,participant,hcpib7dulz8nao1i,,,click,,Čega je riješio taj misterij?,Riješio je taj misterij nestanka psa.,di,,,32,,,
,Timer frame,html.Frame,2_15_0,,,,,,,2490.047999988077,366184.2999999821,366207.652,366207.652,368697.6999999881,368697.89999997616,2024-07-30T16:47:37.201Z,368734.8,iw2l9YzZCx,incremental,anketa,6645cf40bc81b65c5faccf1d,participant,hcpib7dulz8nao1i,,,,,Čega je riješio taj misterij?,Riješio je taj misterij nestanka psa.,di,,,32,,,
,stimulus,canvas.Screen,2_15_1_0,,,,,,response,5032.59999997617,368698.09999999404,368722.796,368734.8,373767.39999997616,374019.39999997616,2024-07-30T16:47:42.523Z,374054.962,iw2l9YzZCx,incremental,anketa,6645cf40bc81b65c5faccf1d,participant,hcpib7dulz8nao1i,,1,click @1,,Čega je riješio taj misterij?,Riješio je taj misterij nestanka psa.,di,,,32,,,
,Timer frame,html.Frame,2_15_1,,,,,,,5284.799999994051,368697.89999997616,368722.796,368734.8,374019.59999999404,374019.7999999821,2024-07-30T16:47:42.523Z,374054.962,iw2l9YzZCx,incremental,anketa,6645cf40bc81b65c5faccf1d,participant,hcpib7dulz8nao1i,,,,,Čega je riješio taj misterij?,Riješio je taj misterij nestanka psa.,di,,,32,,,
,Spremanje,canvas.Screen,2_15_2,,,,,,skipped,,374019.7999999821,,,374019.59999999404,374019.89999997616,2024-07-30T16:47:42.523Z,374054.962,iw2l9YzZCx,incremental,anketa,6645cf40bc81b65c5faccf1d,participant,hcpib7dulz8nao1i,,,,,Čega je riješio taj misterij?,Riješio je taj misterij nestanka psa.,di,,,32,,,
,Question form,html.Form,2_15_3,,,,,,skipped,,374020,,,374019.59999999404,374020.09999999404,2024-07-30T16:47:42.524Z,374054.962,iw2l9YzZCx,incremental,anketa,6645cf40bc81b65c5faccf1d,participant,hcpib7dulz8nao1i,,,,,Čega je riješio taj misterij?,Riješio je taj misterij nestanka psa.,di,,,32,,,
,Answer indication,canvas.Screen,2_15_4,,,,,,skipped,,374021.5,,,374019.59999999404,374021.59999999404,2024-07-30T16:47:42.525Z,374054.962,iw2l9YzZCx,incremental,anketa,6645cf40bc81b65c5faccf1d,participant,hcpib7dulz8nao1i,,,,,Čega je riješio taj misterij?,Riješio je taj misterij nestanka psa.,di,,,32,,,
,inter-stimulus,canvas.Screen,2_15_5,,,,,,response,1468.13799999404,374021.7999999821,374054.962,374054.962,375523.09999999404,375772.1999999881,2024-07-30T16:47:44.276Z,375811.5,iw2l9YzZCx,incremental,anketa,6645cf40bc81b65c5faccf1d,participant,hcpib7dulz8nao1i,,,mousedown,,Čega je riješio taj misterij?,Riješio je taj misterij nestanka psa.,di,,,32,,,
,Sequence,flow.Sequence,2_15,,,,,,completion,9315.447999994038,366184.1999999881,366207.652,366207.652,375523.09999999404,375772.5,2024-07-30T16:47:44.276Z,375811.5,iw2l9YzZCx,incremental,anketa,6645cf40bc81b65c5faccf1d,participant,hcpib7dulz8nao1i,,,,,Čega je riješio taj misterij?,Riješio je taj misterij nestanka psa.,di,,,32,,,
,context,canvas.Screen,2_16_0_0,,,,,,response,5282.199999988079,375772.6999999881,375804.892,375811.5,381093.6999999881,381319.09999999404,2024-07-30T16:47:49.823Z,381351.4,iw2l9YzZCx,incremental,anketa,6645cf40bc81b65c5faccf1d,participant,hcpib7dulz8nao1i,,,click,,Što je Inna tri sata pročitala?,Inna je tri sata čitala zanimljiv članak.,nf,,,39,,,
,Timer frame,html.Frame,2_16_0,,,,,,,5507.799999982119,375772.59999999404,375804.892,375811.5,381319.2999999821,381319.39999997616,2024-07-30T16:47:49.823Z,381351.4,iw2l9YzZCx,incremental,anketa,6645cf40bc81b65c5faccf1d,participant,hcpib7dulz8nao1i,,,,,Što je Inna tri sata pročitala?,Inna je tri sata čitala zanimljiv članak.,nf,,,39,,,
,stimulus,canvas.Screen,2_16_1_0,,,,,,response,5871.399999982095,381319.6999999881,381340.628,381351.4,387222.7999999821,387443,2024-07-30T16:47:55.946Z,387471.562,iw2l9YzZCx,incremental,anketa,6645cf40bc81b65c5faccf1d,participant,hcpib7dulz8nao1i,,5,click @5,,Što je Inna tri sata pročitala?,Inna je tri sata čitala zanimljiv članak.,nf,,,39,,,
,Timer frame,html.Frame,2_16_1,,,,,,,6091.799999988056,381319.5,381340.628,381351.4,387443.1999999881,387443.39999997616,2024-07-30T16:47:55.947Z,387471.562,iw2l9YzZCx,incremental,anketa,6645cf40bc81b65c5faccf1d,participant,hcpib7dulz8nao1i,,,,,Što je Inna tri sata pročitala?,Inna je tri sata čitala zanimljiv članak.,nf,,,39,,,
,Spremanje,canvas.Screen,2_16_2,,,,,,skipped,,387443.5,,,387443.1999999881,387443.59999999404,2024-07-30T16:47:55.947Z,387471.562,iw2l9YzZCx,incremental,anketa,6645cf40bc81b65c5faccf1d,participant,hcpib7dulz8nao1i,,,,,Što je Inna tri sata pročitala?,Inna je tri sata čitala zanimljiv članak.,nf,,,39,,,
,Question form,html.Form,2_16_3,,,,,,skipped,,387443.59999999404,,,387443.1999999881,387443.6999999881,2024-07-30T16:47:55.947Z,387471.562,iw2l9YzZCx,incremental,anketa,6645cf40bc81b65c5faccf1d,participant,hcpib7dulz8nao1i,,,,,Što je Inna tri sata pročitala?,Inna je tri sata čitala zanimljiv članak.,nf,,,39,,,
,Answer indication,canvas.Screen,2_16_4,,,,,,skipped,,387444.7999999821,,,387443.1999999881,387444.89999997616,2024-07-30T16:47:55.948Z,387471.562,iw2l9YzZCx,incremental,anketa,6645cf40bc81b65c5faccf1d,participant,hcpib7dulz8nao1i,,,,,Što je Inna tri sata pročitala?,Inna je tri sata čitala zanimljiv članak.,nf,,,39,,,
,inter-stimulus,canvas.Screen,2_16_5,,,,,,response,2251.0379999940633,387445.09999999404,387471.562,387471.562,389722.59999999404,389971.39999997616,2024-07-30T16:47:58.475Z,,iw2l9YzZCx,incremental,anketa,6645cf40bc81b65c5faccf1d,participant,hcpib7dulz8nao1i,,,mousedown,,Što je Inna tri sata pročitala?,Inna je tri sata čitala zanimljiv članak.,nf,,,39,,,
,Sequence,flow.Sequence,2_16,,,,,,completion,13911.09999999404,375772.5,375804.892,375811.5,389722.59999999404,389971.59999999404,2024-07-30T16:47:58.475Z,,iw2l9YzZCx,incremental,anketa,6645cf40bc81b65c5faccf1d,participant,hcpib7dulz8nao1i,,,,,Što je Inna tri sata pročitala?,Inna je tri sata čitala zanimljiv članak.,nf,,,39,,,
,context,canvas.Screen,2_17_0_0,,,,,,response,3378.899999994028,389971.7999999821,390004.794,390012.2,393391.09999999404,393639.59999999404,2024-07-30T16:48:02.143Z,393663.632,iw2l9YzZCx,incremental,anketa,6645cf40bc81b65c5faccf1d,participant,hcpib7dulz8nao1i,,,click,,Za kim su banditi imali pitanja?,Ti banditi su imali pitanja za mene.,nf,,,40,,,
,Timer frame,html.Frame,2_17_0,,,,,,,3627.4999999880674,389971.7999999821,390004.794,390012.2,393639.6999999881,393639.89999997616,2024-07-30T16:48:02.143Z,393663.632,iw2l9YzZCx,incremental,anketa,6645cf40bc81b65c5faccf1d,participant,hcpib7dulz8nao1i,,,,,Za kim su banditi imali pitanja?,Ti banditi su imali pitanja za mene.,nf,,,40,,,
,stimulus,canvas.Screen,2_17_1_0,,,,,,response,3005.1679999821354,393640.1999999881,393663.632,393663.632,396668.7999999821,396909.09999999404,2024-07-30T16:48:05.413Z,396944.2,iw2l9YzZCx,incremental,anketa,6645cf40bc81b65c5faccf1d,participant,hcpib7dulz8nao1i,,1,click @1,,Za kim su banditi imali pitanja?,Ti banditi su imali pitanja za mene.,nf,,,40,,,
,Timer frame,html.Frame,2_17_1,,,,,,,3245.567999988096,393640,393663.632,393663.632,396909.1999999881,396909.2999999821,2024-07-30T16:48:05.413Z,396944.2,iw2l9YzZCx,incremental,anketa,6645cf40bc81b65c5faccf1d,participant,hcpib7dulz8nao1i,,,,,Za kim su banditi imali pitanja?,Ti banditi su imali pitanja za mene.,nf,,,40,,,
,Spremanje,canvas.Screen,2_17_2,,,,,,skipped,,396909.39999997616,,,396909.1999999881,396909.59999999404,2024-07-30T16:48:05.413Z,396944.2,iw2l9YzZCx,incremental,anketa,6645cf40bc81b65c5faccf1d,participant,hcpib7dulz8nao1i,,,,,Za kim su banditi imali pitanja?,Ti banditi su imali pitanja za mene.,nf,,,40,,,
,Question form,html.Form,2_17_3,,,,,,skipped,,396909.59999999404,,,396909.1999999881,396909.7999999821,2024-07-30T16:48:05.413Z,396944.2,iw2l9YzZCx,incremental,anketa,6645cf40bc81b65c5faccf1d,participant,hcpib7dulz8nao1i,,,,,Za kim su banditi imali pitanja?,Ti banditi su imali pitanja za mene.,nf,,,40,,,
,Answer indication,canvas.Screen,2_17_4,,,,,,skipped,,396910.59999999404,,,396909.1999999881,396910.7999999821,2024-07-30T16:48:05.414Z,396944.2,iw2l9YzZCx,incremental,anketa,6645cf40bc81b65c5faccf1d,participant,hcpib7dulz8nao1i,,,,,Za kim su banditi imali pitanja?,Ti banditi su imali pitanja za mene.,nf,,,40,,,
,inter-stimulus,canvas.Screen,2_17_5,,,,,,response,1480.1999999761465,396910.7999999821,396930.098,396944.2,398424.39999997616,398681.59999999404,2024-07-30T16:48:07.185Z,398710.796,iw2l9YzZCx,incremental,anketa,6645cf40bc81b65c5faccf1d,participant,hcpib7dulz8nao1i,,,mousedown,,Za kim su banditi imali pitanja?,Ti banditi su imali pitanja za mene.,nf,,,40,,,
,Sequence,flow.Sequence,2_17,,,,,,completion,8412.199999976147,389971.6999999881,390004.794,390012.2,398424.39999997616,398681.89999997616,2024-07-30T16:48:07.185Z,398710.796,iw2l9YzZCx,incremental,anketa,6645cf40bc81b65c5faccf1d,participant,hcpib7dulz8nao1i,,,,,Za kim su banditi imali pitanja?,Ti banditi su imali pitanja za mene.,nf,,,40,,,
,context,canvas.Screen,2_18_0_0,,,,,,response,6618.204000000027,398682.39999997616,398710.796,398710.796,405329,405569.2999999821,2024-07-30T16:48:14.073Z,405609.23,iw2l9YzZCx,incremental,anketa,6645cf40bc81b65c5faccf1d,participant,hcpib7dulz8nao1i,,,click,,Koliko vidim dječaka kojem je ljubazni poštar poklonio bicikla??,Vidim dječaka kojem je ljubazni poštar poklonio dva bicikla..,cnp,38,38,10,,,2305
,Timer frame,html.Frame,2_18_0,,,,,,,6858.603999976185,398682.09999999404,398710.796,398710.796,405569.39999997616,405569.5,2024-07-30T16:48:14.073Z,405609.23,iw2l9YzZCx,incremental,anketa,6645cf40bc81b65c5faccf1d,participant,hcpib7dulz8nao1i,,,,,Koliko vidim dječaka kojem je ljubazni poštar poklonio bicikla??,Vidim dječaka kojem je ljubazni poštar poklonio dva bicikla..,cnp,38,38,10,,,2305
,stimulus,canvas.Screen,2_18_1_0,,,,,,response,8203.569999982137,405571.6999999881,405609.23,405609.23,413812.7999999821,414042.1999999881,2024-07-30T16:48:22.546Z,414076.998,iw2l9YzZCx,incremental,anketa,6645cf40bc81b65c5faccf1d,participant,hcpib7dulz8nao1i,,2,click @2,,Koliko vidim dječaka kojem je ljubazni poštar poklonio bicikla??,Vidim dječaka kojem je ljubazni poštar poklonio dva bicikla..,cnp,38,38,10,,,2305
,Timer frame,html.Frame,2_18_1,,,,,,,8433.069999982137,405569.59999999404,405609.23,405609.23,414042.2999999821,414042.5,2024-07-30T16:48:22.546Z,414076.998,iw2l9YzZCx,incremental,anketa,6645cf40bc81b65c5faccf1d,participant,hcpib7dulz8nao1i,,,,,Koliko vidim dječaka kojem je ljubazni poštar poklonio bicikla??,Vidim dječaka kojem je ljubazni poštar poklonio dva bicikla..,cnp,38,38,10,,,2305
,Spremanje,canvas.Screen,2_18_2,,,,,,skipped,,414042.59999999404,,,414042.2999999821,414042.6999999881,2024-07-30T16:48:22.546Z,414076.998,iw2l9YzZCx,incremental,anketa,6645cf40bc81b65c5faccf1d,participant,hcpib7dulz8nao1i,,,,,Koliko vidim dječaka kojem je ljubazni poštar poklonio bicikla??,Vidim dječaka kojem je ljubazni poštar poklonio dva bicikla..,cnp,38,38,10,,,2305
,Question form,html.Form,2_18_3,,,,,,skipped,,414042.6999999881,,,414042.2999999821,414042.7999999821,2024-07-30T16:48:22.546Z,414076.998,iw2l9YzZCx,incremental,anketa,6645cf40bc81b65c5faccf1d,participant,hcpib7dulz8nao1i,,,,,Koliko vidim dječaka kojem je ljubazni poštar poklonio bicikla??,Vidim dječaka kojem je ljubazni poštar poklonio dva bicikla..,cnp,38,38,10,,,2305
,Answer indication,canvas.Screen,2_18_4,,,,,,skipped,,414044.1999999881,,,414042.2999999821,414044.2999999821,2024-07-30T16:48:22.548Z,414076.998,iw2l9YzZCx,incremental,anketa,6645cf40bc81b65c5faccf1d,participant,hcpib7dulz8nao1i,,,,,Koliko vidim dječaka kojem je ljubazni poštar poklonio bicikla??,Vidim dječaka kojem je ljubazni poštar poklonio dva bicikla..,cnp,38,38,10,,,2305
,inter-stimulus,canvas.Screen,2_18_5,,,,,,response,1559.1019999940181,414044.2999999821,414076.998,414076.998,415636.09999999404,415871.39999997616,2024-07-30T16:48:24.375Z,415910.258,iw2l9YzZCx,incremental,anketa,6645cf40bc81b65c5faccf1d,participant,hcpib7dulz8nao1i,,,mousedown,,Koliko vidim dječaka kojem je ljubazni poštar poklonio bicikla??,Vidim dječaka kojem je ljubazni poštar poklonio dva bicikla..,cnp,38,38,10,,,2305
,Sequence,flow.Sequence,2_18,,,,,,completion,16925.303999994067,398682,398710.796,398710.796,415636.09999999404,415871.6999999881,2024-07-30T16:48:24.375Z,415910.258,iw2l9YzZCx,incremental,anketa,6645cf40bc81b65c5faccf1d,participant,hcpib7dulz8nao1i,,,,,Koliko vidim dječaka kojem je ljubazni poštar poklonio bicikla??,Vidim dječaka kojem je ljubazni poštar poklonio dva bicikla..,cnp,38,38,10,,,2305
,context,canvas.Screen,2_19_0_0,,,,,,response,6369.4419999881065,415872.09999999404,415910.258,415910.258,422279.6999999881,422527.89999997616,2024-07-30T16:48:31.031Z,422559.3,iw2l9YzZCx,incremental,anketa,6645cf40bc81b65c5faccf1d,participant,hcpib7dulz8nao1i,,,click,,Tko se zaljubio u djevojku kad je bio dijete?,"Kad smo bili djeca, moj prijatelj i ja smo se zaljubili u istu djevojku..",gf,,33,52,,,
,Timer frame,html.Frame,2_19_0,,,,,,,6617.841999994067,415871.89999997616,415910.258,415910.258,422528.09999999404,422528.1999999881,2024-07-30T16:48:31.032Z,422559.3,iw2l9YzZCx,incremental,anketa,6645cf40bc81b65c5faccf1d,participant,hcpib7dulz8nao1i,,,,,Tko se zaljubio u djevojku kad je bio dijete?,"Kad smo bili djeca, moj prijatelj i ja smo se zaljubili u istu djevojku..",gf,,33,52,,,
,stimulus,canvas.Screen,2_19_1_0,,,,,,response,4003.2000000000116,422528.59999999404,422544.632,422559.3,426562.5,426810.5,2024-07-30T16:48:35.314Z,426865.6,iw2l9YzZCx,incremental,anketa,6645cf40bc81b65c5faccf1d,participant,hcpib7dulz8nao1i,,7,click @7,,Tko se zaljubio u djevojku kad je bio dijete?,"Kad smo bili djeca, moj prijatelj i ja smo se zaljubili u istu djevojku..",gf,,33,52,,,
,Timer frame,html.Frame,2_19_1,,,,,,,4251.299999994051,422528.39999997616,422544.632,422559.3,426810.59999999404,426810.6999999881,2024-07-30T16:48:35.314Z,426865.6,iw2l9YzZCx,incremental,anketa,6645cf40bc81b65c5faccf1d,participant,hcpib7dulz8nao1i,,,,,Tko se zaljubio u djevojku kad je bio dijete?,"Kad smo bili djeca, moj prijatelj i ja smo se zaljubili u istu djevojku..",gf,,33,52,,,
,Spremanje,canvas.Screen,2_19_2,,,,,,skipped,,426810.7999999821,,,426810.59999999404,426810.7999999821,2024-07-30T16:48:35.314Z,426865.6,iw2l9YzZCx,incremental,anketa,6645cf40bc81b65c5faccf1d,participant,hcpib7dulz8nao1i,,,,,Tko se zaljubio u djevojku kad je bio dijete?,"Kad smo bili djeca, moj prijatelj i ja smo se zaljubili u istu djevojku..",gf,,33,52,,,
,Question form,html.Form,2_19_3,,,,,,skipped,,426810.89999997616,,,426810.59999999404,426811,2024-07-30T16:48:35.315Z,426865.6,iw2l9YzZCx,incremental,anketa,6645cf40bc81b65c5faccf1d,participant,hcpib7dulz8nao1i,,,,,Tko se zaljubio u djevojku kad je bio dijete?,"Kad smo bili djeca, moj prijatelj i ja smo se zaljubili u istu djevojku..",gf,,33,52,,,
,Answer indication,canvas.Screen,2_19_4,,,,,,skipped,,426812,,,426810.59999999404,426812.09999999404,2024-07-30T16:48:35.316Z,426865.6,iw2l9YzZCx,incremental,anketa,6645cf40bc81b65c5faccf1d,participant,hcpib7dulz8nao1i,,,,,Tko se zaljubio u djevojku kad je bio dijete?,"Kad smo bili djeca, moj prijatelj i ja smo se zaljubili u istu djevojku..",gf,,33,52,,,
,inter-stimulus,canvas.Screen,2_19_5,,,,,,response,1768.199999982142,426812.1999999881,426852.83,426865.6,428633.7999999821,428871.7999999821,2024-07-30T16:48:37.375Z,428898.852,iw2l9YzZCx,incremental,anketa,6645cf40bc81b65c5faccf1d,participant,hcpib7dulz8nao1i,,,mousedown,,Tko se zaljubio u djevojku kad je bio dijete?,"Kad smo bili djeca, moj prijatelj i ja smo se zaljubili u istu djevojku..",gf,,33,52,,,
,Sequence,flow.Sequence,2_19,,,,,,completion,12723.541999982146,415871.89999997616,415910.258,415910.258,428633.7999999821,428872.09999999404,2024-07-30T16:48:37.376Z,428898.852,iw2l9YzZCx,incremental,anketa,6645cf40bc81b65c5faccf1d,participant,hcpib7dulz8nao1i,,,,,Tko se zaljubio u djevojku kad je bio dijete?,"Kad smo bili djeca, moj prijatelj i ja smo se zaljubili u istu djevojku..",gf,,33,52,,,
,context,canvas.Screen,2_20_0_0,,,,,,response,2769.1479999999865,428872.39999997616,428898.852,428898.852,431668,431916.2999999821,2024-07-30T16:48:40.420Z,431958.398,iw2l9YzZCx,incremental,anketa,6645cf40bc81b65c5faccf1d,participant,hcpib7dulz8nao1i,,,click,,Što Miloš je opljačkao banku da kupi?,Miloš je opljačkao banku da kupi kuću.,ai,,,20,,,
,Timer frame,html.Frame,2_20_0,,,,,,,3017.5479999761446,428872.2999999821,428898.852,428898.852,431916.39999997616,431916.5,2024-07-30T16:48:40.420Z,431958.398,iw2l9YzZCx,incremental,anketa,6645cf40bc81b65c5faccf1d,participant,hcpib7dulz8nao1i,,,,,Što Miloš je opljačkao banku da kupi?,Miloš je opljačkao banku da kupi kuću.,ai,,,20,,,
,stimulus,canvas.Screen,2_20_1_0,,,,,,response,4821.1020000000135,431916.6999999881,431958.398,431958.398,436779.5,437019.6999999881,2024-07-30T16:48:45.523Z,437050.53,iw2l9YzZCx,incremental,anketa,6645cf40bc81b65c5faccf1d,participant,hcpib7dulz8nao1i,,2,click @2,,Što Miloš je opljačkao banku da kupi?,Miloš je opljačkao banku da kupi kuću.,ai,,,20,,,
,Timer frame,html.Frame,2_20_1,,,,,,,5061.501999976172,431916.59999999404,431958.398,431958.398,437019.89999997616,437020.09999999404,2024-07-30T16:48:45.524Z,437050.53,iw2l9YzZCx,incremental,anketa,6645cf40bc81b65c5faccf1d,participant,hcpib7dulz8nao1i,,,,,Što Miloš je opljačkao banku da kupi?,Miloš je opljačkao banku da kupi kuću.,ai,,,20,,,
,Spremanje,canvas.Screen,2_20_2,,,,,,skipped,,437020.1999999881,,,437019.89999997616,437020.1999999881,2024-07-30T16:48:45.524Z,437050.53,iw2l9YzZCx,incremental,anketa,6645cf40bc81b65c5faccf1d,participant,hcpib7dulz8nao1i,,,,,Što Miloš je opljačkao banku da kupi?,Miloš je opljačkao banku da kupi kuću.,ai,,,20,,,
,Question form,html.Form,2_20_3,,,,,,skipped,,437020.2999999821,,,437019.89999997616,437020.39999997616,2024-07-30T16:48:45.524Z,437050.53,iw2l9YzZCx,incremental,anketa,6645cf40bc81b65c5faccf1d,participant,hcpib7dulz8nao1i,,,,,Što Miloš je opljačkao banku da kupi?,Miloš je opljačkao banku da kupi kuću.,ai,,,20,,,
,Answer indication,canvas.Screen,2_20_4,,,,,,skipped,,437021.59999999404,,,437019.89999997616,437021.6999999881,2024-07-30T16:48:45.525Z,437050.53,iw2l9YzZCx,incremental,anketa,6645cf40bc81b65c5faccf1d,participant,hcpib7dulz8nao1i,,,,,Što Miloš je opljačkao banku da kupi?,Miloš je opljačkao banku da kupi kuću.,ai,,,20,,,
,inter-stimulus,canvas.Screen,2_20_5,,,,,,response,1316.0699999940116,437021.7999999821,437050.53,437050.53,438366.59999999404,438621,2024-07-30T16:48:47.125Z,438650.466,iw2l9YzZCx,incremental,anketa,6645cf40bc81b65c5faccf1d,participant,hcpib7dulz8nao1i,,,mousedown,,Što Miloš je opljačkao banku da kupi?,Miloš je opljačkao banku da kupi kuću.,ai,,,20,,,
,Sequence,flow.Sequence,2_20,,,,,,completion,9467.747999994026,428872.2999999821,428898.852,428898.852,438366.59999999404,438621.1999999881,2024-07-30T16:48:47.125Z,438650.466,iw2l9YzZCx,incremental,anketa,6645cf40bc81b65c5faccf1d,participant,hcpib7dulz8nao1i,,,,,Što Miloš je opljačkao banku da kupi?,Miloš je opljačkao banku da kupi kuću.,ai,,,20,,,
,context,canvas.Screen,2_21_0_0,,,,,,response,2233.033999999985,438621.5,438650.466,438650.466,440883.5,441124.59999999404,2024-07-30T16:48:49.628Z,441149.43,iw2l9YzZCx,incremental,anketa,6645cf40bc81b65c5faccf1d,participant,hcpib7dulz8nao1i,,,click,,Večeras je Anna nalakirala nokte.,Anna je večeras nalakirala nokte.,gf,,,49,,,
,Timer frame,html.Frame,2_21_0,,,,,,,2474.3339999821037,438621.39999997616,438650.466,438650.466,441124.7999999821,441124.89999997616,2024-07-30T16:48:49.628Z,441149.43,iw2l9YzZCx,incremental,anketa,6645cf40bc81b65c5faccf1d,participant,hcpib7dulz8nao1i,,,,,Večeras je Anna nalakirala nokte.,Anna je večeras nalakirala nokte.,gf,,,49,,,
,stimulus,canvas.Screen,2_21_1_0,,,,,,response,1690.9699999761651,441125.09999999404,441149.43,441149.43,442840.39999997616,443088.2999999821,2024-07-30T16:48:51.592Z,443117.198,iw2l9YzZCx,incremental,anketa,6645cf40bc81b65c5faccf1d,participant,hcpib7dulz8nao1i,,7,click @7,,Večeras je Anna nalakirala nokte.,Anna je večeras nalakirala nokte.,gf,,,49,,,
,Timer frame,html.Frame,2_21_1,,,,,,,1938.9699999761651,441125,441149.43,441149.43,443088.39999997616,443088.5,2024-07-30T16:48:51.592Z,443117.198,iw2l9YzZCx,incremental,anketa,6645cf40bc81b65c5faccf1d,participant,hcpib7dulz8nao1i,,,,,Večeras je Anna nalakirala nokte.,Anna je večeras nalakirala nokte.,gf,,,49,,,
,Spremanje,canvas.Screen,2_21_2,,,,,,skipped,,443088.59999999404,,,443088.39999997616,443088.59999999404,2024-07-30T16:48:51.592Z,443117.198,iw2l9YzZCx,incremental,anketa,6645cf40bc81b65c5faccf1d,participant,hcpib7dulz8nao1i,,,,,Večeras je Anna nalakirala nokte.,Anna je večeras nalakirala nokte.,gf,,,49,,,
,Question form,html.Form,2_21_3,,,,,,skipped,,443088.6999999881,,,443088.39999997616,443088.7999999821,2024-07-30T16:48:51.592Z,443117.198,iw2l9YzZCx,incremental,anketa,6645cf40bc81b65c5faccf1d,participant,hcpib7dulz8nao1i,,,,,Večeras je Anna nalakirala nokte.,Anna je večeras nalakirala nokte.,gf,,,49,,,
,Answer indication,canvas.Screen,2_21_4,,,,,,skipped,,443089.6999999881,,,443088.39999997616,443089.6999999881,2024-07-30T16:48:51.593Z,443117.198,iw2l9YzZCx,incremental,anketa,6645cf40bc81b65c5faccf1d,participant,hcpib7dulz8nao1i,,,,,Večeras je Anna nalakirala nokte.,Anna je večeras nalakirala nokte.,gf,,,49,,,
,inter-stimulus,canvas.Screen,2_21_5,,,,,,response,1487.0019999881042,443089.7999999821,443117.198,443117.198,444604.1999999881,444856.09999999404,2024-07-30T16:48:53.360Z,444883.794,iw2l9YzZCx,incremental,anketa,6645cf40bc81b65c5faccf1d,participant,hcpib7dulz8nao1i,,,mousedown,,Večeras je Anna nalakirala nokte.,Anna je večeras nalakirala nokte.,gf,,,49,,,
,Sequence,flow.Sequence,2_21,,,,,,completion,5953.733999988064,438621.39999997616,438650.466,438650.466,444604.1999999881,444856.39999997616,2024-07-30T16:48:53.360Z,444883.794,iw2l9YzZCx,incremental,anketa,6645cf40bc81b65c5faccf1d,participant,hcpib7dulz8nao1i,,,,,Večeras je Anna nalakirala nokte.,Anna je večeras nalakirala nokte.,gf,,,49,,,
,context,canvas.Screen,2_22_0_0,,,,,,response,2838.2060000000056,444856.7999999821,444883.794,444883.794,447722,447976.09999999404,2024-07-30T16:48:56.480Z,448013.2,iw2l9YzZCx,incremental,anketa,6645cf40bc81b65c5faccf1d,participant,hcpib7dulz8nao1i,,,click,,Vjerojatno je tu lijepa nekad bila crkva.,Vjerojatno je tu nekad bila lijepa crkva.,lbc,,,36,,,
,Timer frame,html.Frame,2_22_0,,,,,,,3092.6059999761637,444856.59999999404,444883.794,444883.794,447976.39999997616,447976.5,2024-07-30T16:48:56.480Z,448013.2,iw2l9YzZCx,incremental,anketa,6645cf40bc81b65c5faccf1d,participant,hcpib7dulz8nao1i,,,,,Vjerojatno je tu lijepa nekad bila crkva.,Vjerojatno je tu nekad bila lijepa crkva.,lbc,,,36,,,
,stimulus,canvas.Screen,2_22_1_0,,,,,,response,5866.099999982107,447976.89999997616,448001.096,448013.2,453879.2999999821,454141,2024-07-30T16:49:02.645Z,454177.864,iw2l9YzZCx,incremental,anketa,6645cf40bc81b65c5faccf1d,participant,hcpib7dulz8nao1i,,6,click @6,,Vjerojatno je tu lijepa nekad bila crkva.,Vjerojatno je tu nekad bila lijepa crkva.,lbc,,,36,,,
,Timer frame,html.Frame,2_22_1,,,,,,,6128.099999982107,447976.59999999404,448001.096,448013.2,454141.2999999821,454141.39999997616,2024-07-30T16:49:02.645Z,454177.864,iw2l9YzZCx,incremental,anketa,6645cf40bc81b65c5faccf1d,participant,hcpib7dulz8nao1i,,,,,Vjerojatno je tu lijepa nekad bila crkva.,Vjerojatno je tu nekad bila lijepa crkva.,lbc,,,36,,,
,Spremanje,canvas.Screen,2_22_2,,,,,,skipped,,454141.5,,,454141.2999999821,454141.59999999404,2024-07-30T16:49:02.645Z,454177.864,iw2l9YzZCx,incremental,anketa,6645cf40bc81b65c5faccf1d,participant,hcpib7dulz8nao1i,,,,,Vjerojatno je tu lijepa nekad bila crkva.,Vjerojatno je tu nekad bila lijepa crkva.,lbc,,,36,,,
,Question form,html.Form,2_22_3,,,,,,skipped,,454141.59999999404,,,454141.2999999821,454141.6999999881,2024-07-30T16:49:02.645Z,454177.864,iw2l9YzZCx,incremental,anketa,6645cf40bc81b65c5faccf1d,participant,hcpib7dulz8nao1i,,,,,Vjerojatno je tu lijepa nekad bila crkva.,Vjerojatno je tu nekad bila lijepa crkva.,lbc,,,36,,,
,Answer indication,canvas.Screen,2_22_4,,,,,,skipped,,454143,,,454141.2999999821,454143.09999999404,2024-07-30T16:49:02.647Z,454177.864,iw2l9YzZCx,incremental,anketa,6645cf40bc81b65c5faccf1d,participant,hcpib7dulz8nao1i,,,,,Vjerojatno je tu lijepa nekad bila crkva.,Vjerojatno je tu nekad bila lijepa crkva.,lbc,,,36,,,
,inter-stimulus,canvas.Screen,2_22_5,,,,,,response,1739.0359999761567,454143.2999999821,454177.864,454177.864,455916.89999997616,456151.09999999404,2024-07-30T16:49:04.655Z,456195,iw2l9YzZCx,incremental,anketa,6645cf40bc81b65c5faccf1d,participant,hcpib7dulz8nao1i,,,mousedown,,Vjerojatno je tu lijepa nekad bila crkva.,Vjerojatno je tu nekad bila lijepa crkva.,lbc,,,36,,,
,Sequence,flow.Sequence,2_22,,,,,,completion,11033.105999976164,444856.59999999404,444883.794,444883.794,455916.89999997616,456151.39999997616,2024-07-30T16:49:04.655Z,456195,iw2l9YzZCx,incremental,anketa,6645cf40bc81b65c5faccf1d,participant,hcpib7dulz8nao1i,,,,,Vjerojatno je tu lijepa nekad bila crkva.,Vjerojatno je tu nekad bila lijepa crkva.,lbc,,,36,,,
,context,canvas.Screen,2_23_0_0,,,,,,response,4634.199999988079,456151.7999999821,456177.784,456195,460829.1999999881,461085.7999999821,2024-07-30T16:49:09.589Z,461114.662,iw2l9YzZCx,incremental,anketa,6645cf40bc81b65c5faccf1d,participant,hcpib7dulz8nao1i,,,click,,Stare su samo Čehovljeve priče bile u ovoj knjižnici..,Samo su Čehovljeve priče bile stare u ovoj knjižnici..,di,35,35,33,,,
,Timer frame,html.Frame,2_23_0,,,,,,,4891,456151.59999999404,456177.784,456195,461086,461086.1999999881,2024-07-30T16:49:09.590Z,461114.662,iw2l9YzZCx,incremental,anketa,6645cf40bc81b65c5faccf1d,participant,hcpib7dulz8nao1i,,,,,Stare su samo Čehovljeve priče bile u ovoj knjižnici..,Samo su Čehovljeve priče bile stare u ovoj knjižnici..,di,35,35,33,,,
,stimulus,canvas.Screen,2_23_1_0,,,,,,response,5309.837999999989,461086.5,461114.662,461114.662,466424.5,466683.6999999881,2024-07-30T16:49:15.187Z,466745.4,iw2l9YzZCx,incremental,anketa,6645cf40bc81b65c5faccf1d,participant,hcpib7dulz8nao1i,,6,click @6,,Stare su samo Čehovljeve priče bile u ovoj knjižnici..,Samo su Čehovljeve priče bile stare u ovoj knjižnici..,di,35,35,33,,,
,Timer frame,html.Frame,2_23_1,,,,,,,5569.137999982107,461086.2999999821,461114.662,461114.662,466683.7999999821,466684,2024-07-30T16:49:15.188Z,466745.4,iw2l9YzZCx,incremental,anketa,6645cf40bc81b65c5faccf1d,participant,hcpib7dulz8nao1i,,,,,Stare su samo Čehovljeve priče bile u ovoj knjižnici..,Samo su Čehovljeve priče bile stare u ovoj knjižnici..,di,35,35,33,,,
,Spremanje,canvas.Screen,2_23_2,,,,,,skipped,,466684,,,466683.7999999821,466684.09999999404,2024-07-30T16:49:15.188Z,466745.4,iw2l9YzZCx,incremental,anketa,6645cf40bc81b65c5faccf1d,participant,hcpib7dulz8nao1i,,,,,Stare su samo Čehovljeve priče bile u ovoj knjižnici..,Samo su Čehovljeve priče bile stare u ovoj knjižnici..,di,35,35,33,,,
,Question form,html.Form,2_23_3,,,,,,skipped,,466684.2999999821,,,466683.7999999821,466684.2999999821,2024-07-30T16:49:15.188Z,466745.4,iw2l9YzZCx,incremental,anketa,6645cf40bc81b65c5faccf1d,participant,hcpib7dulz8nao1i,,,,,Stare su samo Čehovljeve priče bile u ovoj knjižnici..,Samo su Čehovljeve priče bile stare u ovoj knjižnici..,di,35,35,33,,,
,Answer indication,canvas.Screen,2_23_4,,,,,,skipped,,466687.09999999404,,,466683.7999999821,466687.1999999881,2024-07-30T16:49:15.191Z,466745.4,iw2l9YzZCx,incremental,anketa,6645cf40bc81b65c5faccf1d,participant,hcpib7dulz8nao1i,,,,,Stare su samo Čehovljeve priče bile u ovoj knjižnici..,Samo su Čehovljeve priče bile stare u ovoj knjižnici..,di,35,35,33,,,
,inter-stimulus,canvas.Screen,2_23_5,,,,,,response,1316.1999999940163,466687.2999999821,466734.062,466745.4,468061.59999999404,468288.5,2024-07-30T16:49:16.792Z,468314.2,iw2l9YzZCx,incremental,anketa,6645cf40bc81b65c5faccf1d,participant,hcpib7dulz8nao1i,,,mousedown,,Stare su samo Čehovljeve priče bile u ovoj knjižnici..,Samo su Čehovljeve priče bile stare u ovoj knjižnici..,di,35,35,33,,,
,Sequence,flow.Sequence,2_23,,,,,,completion,11866.59999999404,456151.5,456177.784,456195,468061.59999999404,468288.89999997616,2024-07-30T16:49:16.792Z,468314.2,iw2l9YzZCx,incremental,anketa,6645cf40bc81b65c5faccf1d,participant,hcpib7dulz8nao1i,,,,,Stare su samo Čehovljeve priče bile u ovoj knjižnici..,Samo su Čehovljeve priče bile stare u ovoj knjižnici..,di,35,35,33,,,
,context,canvas.Screen,2_24_0_0,,,,,,response,3505.399999994028,468289.2999999821,468312.004,468314.2,471819.59999999404,472068.09999999404,2024-07-30T16:49:20.572Z,472111.93,iw2l9YzZCx,incremental,anketa,6645cf40bc81b65c5faccf1d,participant,hcpib7dulz8nao1i,,,click,,Čega si gledao prepričavanje?,Gledao si prepričavanje filma.,di,,,31,,,
,Timer frame,html.Frame,2_24_0,,,,,,,3753.9999999880674,468289.09999999404,468312.004,468314.2,472068.1999999881,472068.5,2024-07-30T16:49:20.572Z,472111.93,iw2l9YzZCx,incremental,anketa,6645cf40bc81b65c5faccf1d,participant,hcpib7dulz8nao1i,,,,,Čega si gledao prepričavanje?,Gledao si prepričavanje filma.,di,,,31,,,
,stimulus,canvas.Screen,2_24_1_0,,,,,,response,3492.969999976165,472068.7999999821,472111.93,472111.93,475604.89999997616,475871.59999999404,2024-07-30T16:49:24.375Z,475906.996,iw2l9YzZCx,incremental,anketa,6645cf40bc81b65c5faccf1d,participant,hcpib7dulz8nao1i,,6,click @6,,Čega si gledao prepričavanje?,Gledao si prepričavanje filma.,di,,,31,,,
,Timer frame,html.Frame,2_24_1,,,,,,,3759.8699999821256,472068.59999999404,472111.93,472111.93,475871.7999999821,475871.89999997616,2024-07-30T16:49:24.376Z,475906.996,iw2l9YzZCx,incremental,anketa,6645cf40bc81b65c5faccf1d,participant,hcpib7dulz8nao1i,,,,,Čega si gledao prepričavanje?,Gledao si prepričavanje filma.,di,,,31,,,
,Spremanje,canvas.Screen,2_24_2,,,,,,skipped,,475872,,,475871.7999999821,475872.09999999404,2024-07-30T16:49:24.376Z,475906.996,iw2l9YzZCx,incremental,anketa,6645cf40bc81b65c5faccf1d,participant,hcpib7dulz8nao1i,,,,,Čega si gledao prepričavanje?,Gledao si prepričavanje filma.,di,,,31,,,
,Question form,html.Form,2_24_3,,,,,,skipped,,475872.1999999881,,,475871.7999999821,475872.2999999821,2024-07-30T16:49:24.376Z,475906.996,iw2l9YzZCx,incremental,anketa,6645cf40bc81b65c5faccf1d,participant,hcpib7dulz8nao1i,,,,,Čega si gledao prepričavanje?,Gledao si prepričavanje filma.,di,,,31,,,
,Answer indication,canvas.Screen,2_24_4,,,,,,skipped,,475880.89999997616,,,475871.7999999821,475881,2024-07-30T16:49:24.385Z,475906.996,iw2l9YzZCx,incremental,anketa,6645cf40bc81b65c5faccf1d,participant,hcpib7dulz8nao1i,,,,,Čega si gledao prepričavanje?,Gledao si prepričavanje filma.,di,,,31,,,
,inter-stimulus,canvas.Screen,2_24_5,,,,,,response,1357.4039999761735,475881.1999999881,475906.996,475906.996,477264.39999997616,477524.2999999821,2024-07-30T16:49:26.028Z,477556.93,iw2l9YzZCx,incremental,anketa,6645cf40bc81b65c5faccf1d,participant,hcpib7dulz8nao1i,,,mousedown,,Čega si gledao prepričavanje?,Gledao si prepričavanje filma.,di,,,31,,,
,Sequence,flow.Sequence,2_24,,,,,,completion,8950.199999976147,468289.09999999404,468312.004,468314.2,477264.39999997616,477524.59999999404,2024-07-30T16:49:26.028Z,477556.93,iw2l9YzZCx,incremental,anketa,6645cf40bc81b65c5faccf1d,participant,hcpib7dulz8nao1i,,,,,Čega si gledao prepričavanje?,Gledao si prepričavanje filma.,di,,,31,,,
,context,canvas.Screen,2_25_0_0,,,,,,response,2750.1699999940465,477524.89999997616,477556.93,477556.93,480307.09999999404,480531.6999999881,2024-07-30T16:49:29.035Z,480561.3,iw2l9YzZCx,incremental,anketa,6645cf40bc81b65c5faccf1d,participant,hcpib7dulz8nao1i,,,click,,"Što je on plakao, čitajući?","On je plakao, čitajući knjigu.",ai,,,22,,,
,Timer frame,html.Frame,2_25_0,,,,,,,2974.969999976165,477524.6999999881,477556.93,477556.93,480531.89999997616,480532,2024-07-30T16:49:29.035Z,480561.3,iw2l9YzZCx,incremental,anketa,6645cf40bc81b65c5faccf1d,participant,hcpib7dulz8nao1i,,,,,"Što je on plakao, čitajući?","On je plakao, čitajući knjigu.",ai,,,22,,,
,stimulus,canvas.Screen,2_25_1_0,,,,,,response,6085.200000000012,480532.2999999821,480548.63,480561.3,486646.5,486885.89999997616,2024-07-30T16:49:35.389Z,486918.798,iw2l9YzZCx,incremental,anketa,6645cf40bc81b65c5faccf1d,participant,hcpib7dulz8nao1i,,2,click @2,,"Što je on plakao, čitajući?","On je plakao, čitajući knjigu.",ai,,,22,,,
,Timer frame,html.Frame,2_25_1,,,,,,,6324.899999988091,480532.09999999404,480548.63,480561.3,486886.1999999881,486886.1999999881,2024-07-30T16:49:35.390Z,486918.798,iw2l9YzZCx,incremental,anketa,6645cf40bc81b65c5faccf1d,participant,hcpib7dulz8nao1i,,,,,"Što je on plakao, čitajući?","On je plakao, čitajući knjigu.",ai,,,22,,,
,Spremanje,canvas.Screen,2_25_2,,,,,,skipped,,486886.1999999881,,,486886.1999999881,486886.39999997616,2024-07-30T16:49:35.390Z,486918.798,iw2l9YzZCx,incremental,anketa,6645cf40bc81b65c5faccf1d,participant,hcpib7dulz8nao1i,,,,,"Što je on plakao, čitajući?","On je plakao, čitajući knjigu.",ai,,,22,,,
,Question form,html.Form,2_25_3,,,,,,skipped,,486886.5,,,486886.1999999881,486886.59999999404,2024-07-30T16:49:35.390Z,486918.798,iw2l9YzZCx,incremental,anketa,6645cf40bc81b65c5faccf1d,participant,hcpib7dulz8nao1i,,,,,"Što je on plakao, čitajući?","On je plakao, čitajući knjigu.",ai,,,22,,,
,Answer indication,canvas.Screen,2_25_4,,,,,,skipped,,486887.6999999881,,,486886.1999999881,486887.6999999881,2024-07-30T16:49:35.391Z,486918.798,iw2l9YzZCx,incremental,anketa,6645cf40bc81b65c5faccf1d,participant,hcpib7dulz8nao1i,,,,,"Što je on plakao, čitajući?","On je plakao, čitajući knjigu.",ai,,,22,,,
,inter-stimulus,canvas.Screen,2_25_5,,,,,,response,1232.1019999761484,486887.89999997616,486918.798,486918.798,488150.89999997616,488406.1999999881,2024-07-30T16:49:36.910Z,488437.8,iw2l9YzZCx,incremental,anketa,6645cf40bc81b65c5faccf1d,participant,hcpib7dulz8nao1i,,,mousedown,,"Što je on plakao, čitajući?","On je plakao, čitajući knjigu.",ai,,,22,,,
,Sequence,flow.Sequence,2_25,,,,,,completion,10593.969999976165,477524.6999999881,477556.93,477556.93,488150.89999997616,488406.6999999881,2024-07-30T16:49:36.910Z,488437.8,iw2l9YzZCx,incremental,anketa,6645cf40bc81b65c5faccf1d,participant,hcpib7dulz8nao1i,,,,,"Što je on plakao, čitajući?","On je plakao, čitajući knjigu.",ai,,,22,,,
,context,canvas.Screen,2_26_0_0,,,,,,response,4672.59999997617,488407.09999999404,488435.404,488437.8,493110.39999997616,493363.6999999881,2024-07-30T16:49:41.867Z,493416.6,iw2l9YzZCx,incremental,anketa,6645cf40bc81b65c5faccf1d,participant,hcpib7dulz8nao1i,,,click,,"Oni su se svađali navečer, ali ujutro su sve pritužbe već bile zaboravljene..","Navečer su se svađali, ali ujutro su sve pritužbe već bile zaboravljene..",gf,44,40,48,,,
,Timer frame,html.Frame,2_26_0,,,,,,,4926.09999997617,488406.7999999821,488435.404,488437.8,493363.89999997616,493364.09999999404,2024-07-30T16:49:41.868Z,493416.6,iw2l9YzZCx,incremental,anketa,6645cf40bc81b65c5faccf1d,participant,hcpib7dulz8nao1i,,,,,"Oni su se svađali navečer, ali ujutro su sve pritužbe već bile zaboravljene..","Navečer su se svađali, ali ujutro su sve pritužbe već bile zaboravljene..",gf,44,40,48,,,
,stimulus,canvas.Screen,2_26_1_0,,,,,,response,4799.799999976181,493364.2999999821,493402.598,493416.6,498216.39999997616,498464.7999999821,2024-07-30T16:49:46.968Z,498507.496,iw2l9YzZCx,incremental,anketa,6645cf40bc81b65c5faccf1d,participant,hcpib7dulz8nao1i,,7,click @7,,"Oni su se svađali navečer, ali ujutro su sve pritužbe već bile zaboravljene..","Navečer su se svađali, ali ujutro su sve pritužbe već bile zaboravljene..",gf,44,40,48,,,
,Timer frame,html.Frame,2_26_1,,,,,,,5048.400000000023,493364.09999999404,493402.598,493416.6,498465,498465.09999999404,2024-07-30T16:49:46.969Z,498507.496,iw2l9YzZCx,incremental,anketa,6645cf40bc81b65c5faccf1d,participant,hcpib7dulz8nao1i,,,,,"Oni su se svađali navečer, ali ujutro su sve pritužbe već bile zaboravljene..","Navečer su se svađali, ali ujutro su sve pritužbe već bile zaboravljene..",gf,44,40,48,,,
,Spremanje,canvas.Screen,2_26_2,,,,,,skipped,,498465.1999999881,,,498465,498465.2999999821,2024-07-30T16:49:46.969Z,498507.496,iw2l9YzZCx,incremental,anketa,6645cf40bc81b65c5faccf1d,participant,hcpib7dulz8nao1i,,,,,"Oni su se svađali navečer, ali ujutro su sve pritužbe već bile zaboravljene..","Navečer su se svađali, ali ujutro su sve pritužbe već bile zaboravljene..",gf,44,40,48,,,
,Question form,html.Form,2_26_3,,,,,,skipped,,498465.2999999821,,,498465,498465.5,2024-07-30T16:49:46.969Z,498507.496,iw2l9YzZCx,incremental,anketa,6645cf40bc81b65c5faccf1d,participant,hcpib7dulz8nao1i,,,,,"Oni su se svađali navečer, ali ujutro su sve pritužbe već bile zaboravljene..","Navečer su se svađali, ali ujutro su sve pritužbe već bile zaboravljene..",gf,44,40,48,,,
,Answer indication,canvas.Screen,2_26_4,,,,,,skipped,,498480,,,498465,498480.09999999404,2024-07-30T16:49:46.984Z,498507.496,iw2l9YzZCx,incremental,anketa,6645cf40bc81b65c5faccf1d,participant,hcpib7dulz8nao1i,,,,,"Oni su se svađali navečer, ali ujutro su sve pritužbe već bile zaboravljene..","Navečer su se svađali, ali ujutro su sve pritužbe već bile zaboravljene..",gf,44,40,48,,,
,inter-stimulus,canvas.Screen,2_26_5,,,,,,response,1302.7039999880944,498480.1999999881,498507.496,498507.496,499810.1999999881,500105.09999999404,2024-07-30T16:49:48.609Z,500251.6,iw2l9YzZCx,incremental,anketa,6645cf40bc81b65c5faccf1d,participant,hcpib7dulz8nao1i,,,mousedown,,"Oni su se svađali navečer, ali ujutro su sve pritužbe već bile zaboravljene..","Navečer su se svađali, ali ujutro su sve pritužbe već bile zaboravljene..",gf,44,40,48,,,
,Sequence,flow.Sequence,2_26,,,,,,completion,11372.39999998809,488406.7999999821,488435.404,488437.8,499810.1999999881,500109.7999999821,2024-07-30T16:49:48.613Z,500251.6,iw2l9YzZCx,incremental,anketa,6645cf40bc81b65c5faccf1d,participant,hcpib7dulz8nao1i,,,,,"Oni su se svađali navečer, ali ujutro su sve pritužbe već bile zaboravljene..","Navečer su se svađali, ali ujutro su sve pritužbe već bile zaboravljene..",gf,44,40,48,,,
,context,canvas.Screen,2_27_0_0,,,,,,response,4735.999999994063,500122.2999999821,500207.428,500251.6,504987.59999999404,505290.59999999404,2024-07-30T16:49:53.794Z,505374.6,iw2l9YzZCx,incremental,anketa,6645cf40bc81b65c5faccf1d,participant,hcpib7dulz8nao1i,,,click,,Sanjam dvorac iz kojeg se čuje glasan plač daleko..,Sanjam dvorac daleko iz kojeg se čuje glasan plač..,ai,30,37,26,,,
,Timer frame,html.Frame,2_27_0,,,,,,,5039.199999982142,500110.2999999821,500207.428,500251.6,505290.7999999821,505291.2999999821,2024-07-30T16:49:53.795Z,505374.6,iw2l9YzZCx,incremental,anketa,6645cf40bc81b65c5faccf1d,participant,hcpib7dulz8nao1i,,,,,Sanjam dvorac iz kojeg se čuje glasan plač daleko..,Sanjam dvorac daleko iz kojeg se čuje glasan plač..,ai,30,37,26,,,
,stimulus,canvas.Screen,2_27_1_0,,,,,,response,3491.9000000000233,505291.59999999404,505347.828,505374.6,508866.5,509239.6999999881,2024-07-30T16:49:57.744Z,509360.8,iw2l9YzZCx,incremental,anketa,6645cf40bc81b65c5faccf1d,participant,hcpib7dulz8nao1i,,6,click @6,,Sanjam dvorac iz kojeg se čuje glasan plač daleko..,Sanjam dvorac daleko iz kojeg se čuje glasan plač..,ai,30,37,26,,,
,Timer frame,html.Frame,2_27_1,,,,,,,3868.9000000000233,505291.2999999821,505347.828,505374.6,509243.5,509243.7999999821,2024-07-30T16:49:57.747Z,509360.8,iw2l9YzZCx,incremental,anketa,6645cf40bc81b65c5faccf1d,participant,hcpib7dulz8nao1i,,,,,Sanjam dvorac iz kojeg se čuje glasan plač daleko..,Sanjam dvorac daleko iz kojeg se čuje glasan plač..,ai,30,37,26,,,
,Spremanje,canvas.Screen,2_27_2,,,,,,skipped,,509244,,,509243.5,509244.2999999821,2024-07-30T16:49:57.748Z,509360.8,iw2l9YzZCx,incremental,anketa,6645cf40bc81b65c5faccf1d,participant,hcpib7dulz8nao1i,,,,,Sanjam dvorac iz kojeg se čuje glasan plač daleko..,Sanjam dvorac daleko iz kojeg se čuje glasan plač..,ai,30,37,26,,,
,Question form,html.Form,2_27_3,,,,,,skipped,,509244.39999997616,,,509243.5,509245.09999999404,2024-07-30T16:49:57.749Z,509360.8,iw2l9YzZCx,incremental,anketa,6645cf40bc81b65c5faccf1d,participant,hcpib7dulz8nao1i,,,,,Sanjam dvorac iz kojeg se čuje glasan plač daleko..,Sanjam dvorac daleko iz kojeg se čuje glasan plač..,ai,30,37,26,,,
,Answer indication,canvas.Screen,2_27_4,,,,,,skipped,,509271.7999999821,,,509243.5,509272,2024-07-30T16:49:57.775Z,509360.8,iw2l9YzZCx,incremental,anketa,6645cf40bc81b65c5faccf1d,participant,hcpib7dulz8nao1i,,,,,Sanjam dvorac iz kojeg se čuje glasan plač daleko..,Sanjam dvorac daleko iz kojeg se čuje glasan plač..,ai,30,37,26,,,
,inter-stimulus,canvas.Screen,2_27_5,,,,,,response,1681.3999999880907,509272.09999999404,509336.126,509360.8,511042.1999999881,511335.6999999881,2024-07-30T16:49:59.839Z,511409.5,iw2l9YzZCx,incremental,anketa,6645cf40bc81b65c5faccf1d,participant,hcpib7dulz8nao1i,,,mousedown,,Sanjam dvorac iz kojeg se čuje glasan plač daleko..,Sanjam dvorac daleko iz kojeg se čuje glasan plač..,ai,30,37,26,,,
,Sequence,flow.Sequence,2_27,,,,,,completion,10790.599999988102,500109.89999997616,500207.428,500251.6,511042.1999999881,511336,2024-07-30T16:49:59.840Z,511409.5,iw2l9YzZCx,incremental,anketa,6645cf40bc81b65c5faccf1d,participant,hcpib7dulz8nao1i,,,,,Sanjam dvorac iz kojeg se čuje glasan plač daleko..,Sanjam dvorac daleko iz kojeg se čuje glasan plač..,ai,30,37,26,,,
,context,canvas.Screen,2_28_0_0,,,,,,response,5228.699999988079,511339.1999999881,511394.052,511409.5,516638.1999999881,516919.39999997616,2024-07-30T16:50:05.423Z,516964.4,iw2l9YzZCx,incremental,anketa,6645cf40bc81b65c5faccf1d,participant,hcpib7dulz8nao1i,,,click,,Kakva čovjeka svatko tko poznaje može potvrditi njegov integritet??,Svatko tko poznaje onog čovjeka može potvrditi njegov integritet..,si,33,31,12,,,2305
,Timer frame,html.Frame,2_28_0,,,,,,,5511,511336.89999997616,511394.052,511409.5,516920.5,516920.59999999404,2024-07-30T16:50:05.424Z,516964.4,iw2l9YzZCx,incremental,anketa,6645cf40bc81b65c5faccf1d,participant,hcpib7dulz8nao1i,,,,,Kakva čovjeka svatko tko poznaje može potvrditi njegov integritet??,Svatko tko poznaje onog čovjeka može potvrditi njegov integritet..,si,33,31,12,,,2305
,stimulus,canvas.Screen,2_28_1_0,,,,,,response,4417.699999994016,516921.59999999404,516950.864,516964.4,521382.09999999404,521659.2999999821,2024-07-30T16:50:10.163Z,521735.1,iw2l9YzZCx,incremental,anketa,6645cf40bc81b65c5faccf1d,participant,hcpib7dulz8nao1i,,3,click @3,,Kakva čovjeka svatko tko poznaje može potvrditi njegov integritet??,Svatko tko poznaje onog čovjeka može potvrditi njegov integritet..,si,33,31,12,,,2305
,Timer frame,html.Frame,2_28_1,,,,,,,4695.099999999977,516920.7999999821,516950.864,516964.4,521659.5,521659.59999999404,2024-07-30T16:50:10.163Z,521735.1,iw2l9YzZCx,incremental,anketa,6645cf40bc81b65c5faccf1d,participant,hcpib7dulz8nao1i,,,,,Kakva čovjeka svatko tko poznaje može potvrditi njegov integritet??,Svatko tko poznaje onog čovjeka može potvrditi njegov integritet..,si,33,31,12,,,2305
,Spremanje,canvas.Screen,2_28_2,,,,,,skipped,,521659.6999999881,,,521659.5,521659.7999999821,2024-07-30T16:50:10.163Z,521735.1,iw2l9YzZCx,incremental,anketa,6645cf40bc81b65c5faccf1d,participant,hcpib7dulz8nao1i,,,,,Kakva čovjeka svatko tko poznaje može potvrditi njegov integritet??,Svatko tko poznaje onog čovjeka može potvrditi njegov integritet..,si,33,31,12,,,2305
,Question form,html.Form,2_28_3,,,,,,skipped,,521660,,,521659.5,521660.2999999821,2024-07-30T16:50:10.164Z,521735.1,iw2l9YzZCx,incremental,anketa,6645cf40bc81b65c5faccf1d,participant,hcpib7dulz8nao1i,,,,,Kakva čovjeka svatko tko poznaje može potvrditi njegov integritet??,Svatko tko poznaje onog čovjeka može potvrditi njegov integritet..,si,33,31,12,,,2305
,Answer indication,canvas.Screen,2_28_4,,,,,,skipped,,521672.09999999404,,,521659.5,521672.09999999404,2024-07-30T16:50:10.176Z,521735.1,iw2l9YzZCx,incremental,anketa,6645cf40bc81b65c5faccf1d,participant,hcpib7dulz8nao1i,,,,,Kakva čovjeka svatko tko poznaje može potvrditi njegov integritet??,Svatko tko poznaje onog čovjeka može potvrditi njegov integritet..,si,33,31,12,,,2305
,inter-stimulus,canvas.Screen,2_28_5,,,,,,response,1135.7999999761814,521672.2999999821,521721.664,521735.1,522870.89999997616,523127.6999999881,2024-07-30T16:50:11.631Z,523175.5,iw2l9YzZCx,incremental,anketa,6645cf40bc81b65c5faccf1d,participant,hcpib7dulz8nao1i,,,mousedown,,Kakva čovjeka svatko tko poznaje može potvrditi njegov integritet??,Svatko tko poznaje onog čovjeka može potvrditi njegov integritet..,si,33,31,12,,,2305
,Sequence,flow.Sequence,2_28,,,,,,completion,11461.399999976158,511336.09999999404,511394.052,511409.5,522870.89999997616,523128.1999999881,2024-07-30T16:50:11.632Z,523175.5,iw2l9YzZCx,incremental,anketa,6645cf40bc81b65c5faccf1d,participant,hcpib7dulz8nao1i,,,,,Kakva čovjeka svatko tko poznaje može potvrditi njegov integritet??,Svatko tko poznaje onog čovjeka može potvrditi njegov integritet..,si,33,31,12,,,2305
,context,canvas.Screen,2_29_0_0,,,,,,response,3159,523131.6999999881,523168.376,523175.5,526334.5,526573.8999999762,2024-07-30T16:50:15.077Z,526617.2,iw2l9YzZCx,incremental,anketa,6645cf40bc81b65c5faccf1d,participant,hcpib7dulz8nao1i,,,click,,"Kamo da ne odeš gladan, doručkovao si?",Doručkovao si da ne odeš gladan u planine.,ai,,,21,,,
,Timer frame,html.Frame,2_29_0,,,,,,,3398.5,523128.59999999404,523168.376,523175.5,526574,526574.1999999881,2024-07-30T16:50:15.078Z,526617.2,iw2l9YzZCx,incremental,anketa,6645cf40bc81b65c5faccf1d,participant,hcpib7dulz8nao1i,,,,,"Kamo da ne odeš gladan, doručkovao si?",Doručkovao si da ne odeš gladan u planine.,ai,,,21,,,
,stimulus,canvas.Screen,2_29_1_0,,,,,,response,4823.899999994086,526574.8999999762,526602.532,526617.2,531441.099999994,531673.1999999881,2024-07-30T16:50:20.177Z,531724.9,iw2l9YzZCx,incremental,anketa,6645cf40bc81b65c5faccf1d,participant,hcpib7dulz8nao1i,,5,click @5,,"Kamo da ne odeš gladan, doručkovao si?",Doručkovao si da ne odeš gladan u planine.,ai,,,21,,,
,Timer frame,html.Frame,2_29_1,,,,,,,5056.099999982165,526574.2999999821,526602.532,526617.2,531673.2999999821,531673.5,2024-07-30T16:50:20.177Z,531724.9,iw2l9YzZCx,incremental,anketa,6645cf40bc81b65c5faccf1d,participant,hcpib7dulz8nao1i,,,,,"Kamo da ne odeš gladan, doručkovao si?",Doručkovao si da ne odeš gladan u planine.,ai,,,21,,,
,Spremanje,canvas.Screen,2_29_2,,,,,,skipped,,531673.599999994,,,531673.2999999821,531673.599999994,2024-07-30T16:50:20.177Z,531724.9,iw2l9YzZCx,incremental,anketa,6645cf40bc81b65c5faccf1d,participant,hcpib7dulz8nao1i,,,,,"Kamo da ne odeš gladan, doručkovao si?",Doručkovao si da ne odeš gladan u planine.,ai,,,21,,,
,Question form,html.Form,2_29_3,,,,,,skipped,,531673.7999999821,,,531673.2999999821,531675.599999994,2024-07-30T16:50:20.179Z,531724.9,iw2l9YzZCx,incremental,anketa,6645cf40bc81b65c5faccf1d,participant,hcpib7dulz8nao1i,,,,,"Kamo da ne odeš gladan, doručkovao si?",Doručkovao si da ne odeš gladan u planine.,ai,,,21,,,
