meta,sender,sender_type,sender_id,age,education,croatian-knowledge,occupation,,ended_on,duration,time_run,time_render,time_show,time_end,time_commit,timestamp,time_switch,openLabId,type,task,project,status,code,confirmationCode,response,response_action,answer_true,stimulus,context,island_type,transfer_s,transfer_c,id,right_answer,question,change_date
"{""labjs_version"":""20.2.4"",""labjs_build"":{""flavor"":""production"",""commit"":""f5b4a49f956347addd546a832a3327688c2c0fef""},""location"":""https://open-lab.online/test/anketa/66a92f89e3bab725623a41da"",""userAgent"":""Mozilla/5.0 (Linux; Android 10; K) AppleWebKit/537.36 (KHTML, like Gecko) Chrome/127.0.0.0 Mobile Safari/537.36"",""platform"":""Linux armv81"",""language"":""hr-HR"",""locale"":""hr"",""timeZone"":""Europe/Zagreb"",""timezoneOffset"":-120,""screen_width"":393,""screen_height"":873,""scroll_width"":980,""scroll_height"":1916,""window_innerWidth"":980,""window_innerHeight"":1825,""devicePixelRatio"":2.75}",Demography form,html.Form,0,25,highschool,mother-tongue,Geoloski Tehničar,,form submission,40871.30000004768,1723.7000000476837,1725.8,1824.9,42696.200000047684,42698.200000047684,2024-07-30T18:23:47.442Z,42751.2,JzUOBPldlg,incremental,anketa,6645cf40bc81b65c5faccf1d,participant,hcpib7dulz8qxcvi,846459,,,,,,,,,,,,
,context,canvas.Screen,1_0,,,,,,response,5568.800000000003,42699.60000002384,42701.7,42751.2,48320,48538.200000047684,2024-07-30T18:23:53.282Z,48631.7,JzUOBPldlg,incremental,anketa,6645cf40bc81b65c5faccf1d,participant,hcpib7dulz8qxcvi,,,click,,,,,,,,,,
,stimulus,canvas.Screen,1_1,,,,,,response,18405.60000007153,48539.5,48549.1,48631.7,67037.30000007153,67263,2024-07-30T18:24:12.007Z,67324.6,JzUOBPldlg,incremental,anketa,6645cf40bc81b65c5faccf1d,participant,hcpib7dulz8qxcvi,,2,click @2,,,,,,,,,,
,inter-stimulus,canvas.Screen,1_2,,,,,,response,2363.2000000715198,67263.39999997616,67275,67324.6,69687.80000007153,69919.10000002384,2024-07-30T18:24:14.663Z,69999.4,JzUOBPldlg,incremental,anketa,6645cf40bc81b65c5faccf1d,participant,hcpib7dulz8qxcvi,,,mousedown,,,,,,,,,,
,context,canvas.Screen,1_3,,,,,,response,4739.700000023848,69920,69933.3,69999.4,74739.10000002384,74955.80000007153,2024-07-30T18:24:19.699Z,75083.6,JzUOBPldlg,incremental,anketa,6645cf40bc81b65c5faccf1d,participant,hcpib7dulz8qxcvi,,,click,,,,,,,,,,
,stimulus,canvas.Screen,1_4,,,,,,response,9498.70000007152,74956.39999997616,74968.1,75083.6,84582.30000007153,84799,2024-07-30T18:24:29.543Z,84882.3,JzUOBPldlg,incremental,anketa,6645cf40bc81b65c5faccf1d,participant,hcpib7dulz8qxcvi,,1,click @1,,,,,,,,,,
,inter-stimulus,canvas.Screen,1_5,,,,,,response,1308.9000000476808,84800.10000002384,84799.3,84882.3,86191.20000004768,86407.5,2024-07-30T18:24:31.151Z,86509,JzUOBPldlg,incremental,anketa,6645cf40bc81b65c5faccf1d,participant,hcpib7dulz8qxcvi,,,mousedown,,,,,,,,,,
,context,canvas.Screen,1_6,,,,,,response,3188.8000000715256,86408.5,86426,86509,89697.80000007153,89947.20000004768,2024-07-30T18:24:34.691Z,90031.2,JzUOBPldlg,incremental,anketa,6645cf40bc81b65c5faccf1d,participant,hcpib7dulz8qxcvi,,,click,,,,,,,,,,
,stimulus,canvas.Screen,1_7_0,,,,,,response,6079.6000000715285,89956.5,89948.3,90031.2,96110.80000007153,96348.89999997616,2024-07-30T18:24:41.092Z,96443.1,JzUOBPldlg,incremental,anketa,6645cf40bc81b65c5faccf1d,participant,hcpib7dulz8qxcvi,,5,click @5,,,,,,,,,,
,Timer frame,html.Frame,1_7,,,,,,,6318.6000000715285,89948.5,89948.3,90031.2,96349.80000007153,96351.89999997616,2024-07-30T18:24:41.095Z,96443.1,JzUOBPldlg,incremental,anketa,6645cf40bc81b65c5faccf1d,participant,hcpib7dulz8qxcvi,,,,,,,,,,,,,
,Screen,canvas.Screen,1_8,,,,,,response,7836.399999999994,96352.60000002384,96343.6,96443.1,104279.5,104516.39999997616,2024-07-30T18:24:49.260Z,104535.4,JzUOBPldlg,incremental,anketa,6645cf40bc81b65c5faccf1d,participant,hcpib7dulz8qxcvi,,,mousedown,,,,,,,,,,
,Question form,html.Form,1_9,,,,,,form submission,10388.999999976164,104517.5,104518.8,104535.4,114924.39999997616,114926.5,2024-07-30T18:24:59.670Z,114979.856,JzUOBPldlg,incremental,anketa,6645cf40bc81b65c5faccf1d,participant,hcpib7dulz8qxcvi,,,,Slatke,,,,,,,,,
,Screen,canvas.Screen,1_10,,,,,,response,2866.944000071526,114933.80000007153,114979.856,114979.856,117846.80000007153,118104.10000002384,2024-07-30T18:25:02.848Z,118199,JzUOBPldlg,incremental,anketa,6645cf40bc81b65c5faccf1d,participant,hcpib7dulz8qxcvi,,,mousedown,,,,,,,,,,
,inter-stimulus,canvas.Screen,1_11,,,,,,response,4168.399999976158,118105.30000007153,118099.7,118199,122367.39999997616,122589.5,2024-07-30T18:25:07.333Z,122673.9,JzUOBPldlg,incremental,anketa,6645cf40bc81b65c5faccf1d,participant,hcpib7dulz8qxcvi,,,mousedown,,,,,,,,,,
,First stimuli,flow.Sequence,1,,,,,,completion,79616.19999997616,42699.39999997616,42701.7,42751.2,122367.39999997616,122598.70000004768,2024-07-30T18:25:07.342Z,122673.9,JzUOBPldlg,incremental,anketa,6645cf40bc81b65c5faccf1d,participant,hcpib7dulz8qxcvi,,,,,,,,,,,,,
,context,canvas.Screen,2_0_0_0,,,,,,response,7196.700000023848,122601.5,122591.4,122673.9,129870.60000002384,130071.60000002384,2024-07-30T18:25:14.815Z,130145.3,JzUOBPldlg,incremental,anketa,6645cf40bc81b65c5faccf1d,participant,hcpib7dulz8qxcvi,,,click,,Kad je Lena pronašla honorarni posao?,Lena je pronašla honorarni posao ubrzo nakon praznika..,gf,,32,51,,,
,Timer frame,html.Frame,2_0_0,,,,,,,7398.100000000006,122600.70000004768,122591.4,122673.9,130072,130073.39999997616,2024-07-30T18:25:14.817Z,130145.3,JzUOBPldlg,incremental,anketa,6645cf40bc81b65c5faccf1d,participant,hcpib7dulz8qxcvi,,,,,Kad je Lena pronašla honorarni posao?,Lena je pronašla honorarni posao ubrzo nakon praznika..,gf,,32,51,,,
,stimulus,canvas.Screen,2_0_1_0,,,,,,response,3130.199999999997,130074.30000007153,130079.2,130145.3,133275.5,133483.10000002384,2024-07-30T18:25:18.227Z,133565.2,JzUOBPldlg,incremental,anketa,6645cf40bc81b65c5faccf1d,participant,hcpib7dulz8qxcvi,,2,click @2,,Kad je Lena pronašla honorarni posao?,Lena je pronašla honorarni posao ubrzo nakon praznika..,gf,,32,51,,,
,Timer frame,html.Frame,2_0_1,,,,,,,3339.5000000715227,130073.80000007153,130079.2,130145.3,133484.80000007153,133485.89999997616,2024-07-30T18:25:18.229Z,133565.2,JzUOBPldlg,incremental,anketa,6645cf40bc81b65c5faccf1d,participant,hcpib7dulz8qxcvi,,,,,Kad je Lena pronašla honorarni posao?,Lena je pronašla honorarni posao ubrzo nakon praznika..,gf,,32,51,,,
,Spremanje,canvas.Screen,2_0_2,,,,,,skipped,,133486.70000004768,,,133484.80000007153,133487.39999997616,2024-07-30T18:25:18.231Z,133565.2,JzUOBPldlg,incremental,anketa,6645cf40bc81b65c5faccf1d,participant,hcpib7dulz8qxcvi,,,,,Kad je Lena pronašla honorarni posao?,Lena je pronašla honorarni posao ubrzo nakon praznika..,gf,,32,51,,,
,Question form,html.Form,2_0_3,,,,,,skipped,,133488,,,133484.80000007153,133488.60000002384,2024-07-30T18:25:18.232Z,133565.2,JzUOBPldlg,incremental,anketa,6645cf40bc81b65c5faccf1d,participant,hcpib7dulz8qxcvi,,,,,Kad je Lena pronašla honorarni posao?,Lena je pronašla honorarni posao ubrzo nakon praznika..,gf,,32,51,,,
,Answer indication,canvas.Screen,2_0_4,,,,,,skipped,,133499.39999997616,,,133484.80000007153,133500.30000007153,2024-07-30T18:25:18.244Z,133565.2,JzUOBPldlg,incremental,anketa,6645cf40bc81b65c5faccf1d,participant,hcpib7dulz8qxcvi,,,,,Kad je Lena pronašla honorarni posao?,Lena je pronašla honorarni posao ubrzo nakon praznika..,gf,,32,51,,,
,inter-stimulus,canvas.Screen,2_0_5,,,,,,response,1517.500000047672,133501.10000002384,133465.866,133565.2,135082.70000004768,135310.30000007153,2024-07-30T18:25:20.054Z,135399.8,JzUOBPldlg,incremental,anketa,6645cf40bc81b65c5faccf1d,participant,hcpib7dulz8qxcvi,,,mousedown,,Kad je Lena pronašla honorarni posao?,Lena je pronašla honorarni posao ubrzo nakon praznika..,gf,,32,51,,,
,Sequence,flow.Sequence,2_0,,,,,,completion,12408.80000004769,122600.39999997616,122591.4,122673.9,135082.70000004768,135312.20000004768,2024-07-30T18:25:20.056Z,135399.8,JzUOBPldlg,incremental,anketa,6645cf40bc81b65c5faccf1d,participant,hcpib7dulz8qxcvi,,,,,Kad je Lena pronašla honorarni posao?,Lena je pronašla honorarni posao ubrzo nakon praznika..,gf,,32,51,,,
,context,canvas.Screen,2_1_0_0,,,,,,response,2982.7000000000116,135314.20000004768,135317.1,135399.8,138382.5,138606.80000007153,2024-07-30T18:25:23.350Z,138685.8,JzUOBPldlg,incremental,anketa,6645cf40bc81b65c5faccf1d,participant,hcpib7dulz8qxcvi,,,click,,Ove godine su se Viktor i Marta vjenčao.,Victor i Marta vjenčali su se ove godine.,nf,,,38,,,
,Timer frame,html.Frame,2_1_0,,,,,,,3208.09999997617,135313.20000004768,135317.1,135399.8,138607.89999997616,138608.70000004768,2024-07-30T18:25:23.352Z,138685.8,JzUOBPldlg,incremental,anketa,6645cf40bc81b65c5faccf1d,participant,hcpib7dulz8qxcvi,,,,,Ove godine su se Viktor i Marta vjenčao.,Victor i Marta vjenčali su se ove godine.,nf,,,38,,,
,stimulus,canvas.Screen,2_1_1_0,,,,,,response,4039.2000000000116,138610.5,138603.1,138685.8,142725,142945.10000002384,2024-07-30T18:25:27.689Z,143049.2,JzUOBPldlg,incremental,anketa,6645cf40bc81b65c5faccf1d,participant,hcpib7dulz8qxcvi,,1,click @1,,Ove godine su se Viktor i Marta vjenčao.,Victor i Marta vjenčali su se ove godine.,nf,,,38,,,
,Timer frame,html.Frame,2_1_1,,,,,,,4260.3000000238535,138609.30000007153,138603.1,138685.8,142946.10000002384,142946.80000007153,2024-07-30T18:25:27.690Z,143049.2,JzUOBPldlg,incremental,anketa,6645cf40bc81b65c5faccf1d,participant,hcpib7dulz8qxcvi,,,,,Ove godine su se Viktor i Marta vjenčao.,Victor i Marta vjenčali su se ove godine.,nf,,,38,,,
,Spremanje,canvas.Screen,2_1_2,,,,,,skipped,,142947.30000007153,,,142946.10000002384,142947.89999997616,2024-07-30T18:25:27.691Z,143049.2,JzUOBPldlg,incremental,anketa,6645cf40bc81b65c5faccf1d,participant,hcpib7dulz8qxcvi,,,,,Ove godine su se Viktor i Marta vjenčao.,Victor i Marta vjenčali su se ove godine.,nf,,,38,,,
,Question form,html.Form,2_1_3,,,,,,skipped,,142948.39999997616,,,142946.10000002384,142948.89999997616,2024-07-30T18:25:27.692Z,143049.2,JzUOBPldlg,incremental,anketa,6645cf40bc81b65c5faccf1d,participant,hcpib7dulz8qxcvi,,,,,Ove godine su se Viktor i Marta vjenčao.,Victor i Marta vjenčali su se ove godine.,nf,,,38,,,
,Answer indication,canvas.Screen,2_1_4,,,,,,skipped,,142955.39999997616,,,142946.10000002384,142956.20000004768,2024-07-30T18:25:27.700Z,143049.2,JzUOBPldlg,incremental,anketa,6645cf40bc81b65c5faccf1d,participant,hcpib7dulz8qxcvi,,,,,Ove godine su se Viktor i Marta vjenčao.,Victor i Marta vjenčali su se ove godine.,nf,,,38,,,
,inter-stimulus,canvas.Screen,2_1_5,,,,,,response,1089.600000071514,142956.80000007153,142950.1,143049.2,144138.80000007153,144379,2024-07-30T18:25:29.123Z,144453.6,JzUOBPldlg,incremental,anketa,6645cf40bc81b65c5faccf1d,participant,hcpib7dulz8qxcvi,,,mousedown,,Ove godine su se Viktor i Marta vjenčao.,Victor i Marta vjenčali su se ove godine.,nf,,,38,,,
,Sequence,flow.Sequence,2_1,,,,,,completion,8739.000000071537,135312.89999997616,135317.1,135399.8,144138.80000007153,144380.60000002384,2024-07-30T18:25:29.124Z,144453.6,JzUOBPldlg,incremental,anketa,6645cf40bc81b65c5faccf1d,participant,hcpib7dulz8qxcvi,,,,,Ove godine su se Viktor i Marta vjenčao.,Victor i Marta vjenčali su se ove godine.,nf,,,38,,,
,context,canvas.Screen,2_2_0_0,,,,,,response,4388.70000007152,144382.5,144387.6,144453.6,148842.30000007153,149068.70000004768,2024-07-30T18:25:33.812Z,149143.6,JzUOBPldlg,incremental,anketa,6645cf40bc81b65c5faccf1d,participant,hcpib7dulz8qxcvi,,,click,,Vidimo plažu daleko od koje smo bili.,Vidimo plažu od koje smo bili daleko.,ai,,,24,,,
,Timer frame,html.Frame,2_2_0,,,,,,,4615.799999976152,144381.39999997616,144387.6,144453.6,149069.39999997616,149070.20000004768,2024-07-30T18:25:33.814Z,149143.6,JzUOBPldlg,incremental,anketa,6645cf40bc81b65c5faccf1d,participant,hcpib7dulz8qxcvi,,,,,Vidimo plažu daleko od koje smo bili.,Vidimo plažu od koje smo bili daleko.,ai,,,24,,,
,stimulus,canvas.Screen,2_2_1_0,,,,,,response,5701.20000007152,149071.70000004768,149061.896,149143.6,154844.80000007153,155063.5,2024-07-30T18:25:39.807Z,155145.2,JzUOBPldlg,incremental,anketa,6645cf40bc81b65c5faccf1d,participant,hcpib7dulz8qxcvi,,1,click @1,,Vidimo plažu daleko od koje smo bili.,Vidimo plažu od koje smo bili daleko.,ai,,,24,,,
,Timer frame,html.Frame,2_2_1,,,,,,,5921.20000007152,149071.10000002384,149061.896,149143.6,155064.80000007153,155066.30000007153,2024-07-30T18:25:39.810Z,155145.2,JzUOBPldlg,incremental,anketa,6645cf40bc81b65c5faccf1d,participant,hcpib7dulz8qxcvi,,,,,Vidimo plažu daleko od koje smo bili.,Vidimo plažu od koje smo bili daleko.,ai,,,24,,,
,Spremanje,canvas.Screen,2_2_2,,,,,,skipped,,155067,,,155064.80000007153,155067.70000004768,2024-07-30T18:25:39.811Z,155145.2,JzUOBPldlg,incremental,anketa,6645cf40bc81b65c5faccf1d,participant,hcpib7dulz8qxcvi,,,,,Vidimo plažu daleko od koje smo bili.,Vidimo plažu od koje smo bili daleko.,ai,,,24,,,
,Question form,html.Form,2_2_3,,,,,,skipped,,155068.20000004768,,,155064.80000007153,155068.89999997616,2024-07-30T18:25:39.812Z,155145.2,JzUOBPldlg,incremental,anketa,6645cf40bc81b65c5faccf1d,participant,hcpib7dulz8qxcvi,,,,,Vidimo plažu daleko od koje smo bili.,Vidimo plažu od koje smo bili daleko.,ai,,,24,,,
,Answer indication,canvas.Screen,2_2_4,,,,,,skipped,,155077,,,155064.80000007153,155077.80000007153,2024-07-30T18:25:39.821Z,155145.2,JzUOBPldlg,incremental,anketa,6645cf40bc81b65c5faccf1d,participant,hcpib7dulz8qxcvi,,,,,Vidimo plažu daleko od koje smo bili.,Vidimo plažu od koje smo bili daleko.,ai,,,24,,,
,inter-stimulus,canvas.Screen,2_2_5,,,,,,response,865.9000000238302,155078.60000002384,155062.8,155145.2,156011.10000002384,156280.20000004768,2024-07-30T18:25:41.024Z,156367.9,JzUOBPldlg,incremental,anketa,6645cf40bc81b65c5faccf1d,participant,hcpib7dulz8qxcvi,,,mousedown,,Vidimo plažu daleko od koje smo bili.,Vidimo plažu od koje smo bili daleko.,ai,,,24,,,
,Sequence,flow.Sequence,2_2,,,,,,completion,11557.500000023836,144381.20000004768,144387.6,144453.6,156011.10000002384,156281.89999997616,2024-07-30T18:25:41.025Z,156367.9,JzUOBPldlg,incremental,anketa,6645cf40bc81b65c5faccf1d,participant,hcpib7dulz8qxcvi,,,,,Vidimo plažu daleko od koje smo bili.,Vidimo plažu od koje smo bili daleko.,ai,,,24,,,
,context,canvas.Screen,2_3_0_0,,,,,,response,6370.100000000006,156283.70000004768,156285.3,156367.9,162738,162960.5,2024-07-30T18:25:47.704Z,163043,JzUOBPldlg,incremental,anketa,6645cf40bc81b65c5faccf1d,participant,hcpib7dulz8qxcvi,,,click,,"Tko se nadaš da će napraviti prezentaciju, a Đure nacrtati sliku??","Nadaš se da će Vesna napraviti prezentaciju, a Đure nacrtati sliku..",csi,42,44,2,,,
,Timer frame,html.Frame,2_3_0,,,,,,,6594.600000000006,156282.80000007153,156285.3,156367.9,162962.5,162963.5,2024-07-30T18:25:47.707Z,163043,JzUOBPldlg,incremental,anketa,6645cf40bc81b65c5faccf1d,participant,hcpib7dulz8qxcvi,,,,,"Tko se nadaš da će napraviti prezentaciju, a Đure nacrtati sliku??","Nadaš se da će Vesna napraviti prezentaciju, a Đure nacrtati sliku..",csi,42,44,2,,,
,stimulus,canvas.Screen,2_3_1_0,,,,,,response,4698.600000023842,162965.10000002384,162960.2,163043,167741.60000002384,167952,2024-07-30T18:25:52.696Z,168046.8,JzUOBPldlg,incremental,anketa,6645cf40bc81b65c5faccf1d,participant,hcpib7dulz8qxcvi,,1,click @1,,"Tko se nadaš da će napraviti prezentaciju, a Đure nacrtati sliku??","Nadaš se da će Vesna napraviti prezentaciju, a Đure nacrtati sliku..",csi,42,44,2,,,
,Timer frame,html.Frame,2_3_1,,,,,,,4909.899999976158,162964.20000004768,162960.2,163043,167952.89999997616,167953.60000002384,2024-07-30T18:25:52.697Z,168046.8,JzUOBPldlg,incremental,anketa,6645cf40bc81b65c5faccf1d,participant,hcpib7dulz8qxcvi,,,,,"Tko se nadaš da će napraviti prezentaciju, a Đure nacrtati sliku??","Nadaš se da će Vesna napraviti prezentaciju, a Đure nacrtati sliku..",csi,42,44,2,,,
,Spremanje,canvas.Screen,2_3_2,,,,,,skipped,,167954.39999997616,,,167952.89999997616,167955,2024-07-30T18:25:52.698Z,168046.8,JzUOBPldlg,incremental,anketa,6645cf40bc81b65c5faccf1d,participant,hcpib7dulz8qxcvi,,,,,"Tko se nadaš da će napraviti prezentaciju, a Đure nacrtati sliku??","Nadaš se da će Vesna napraviti prezentaciju, a Đure nacrtati sliku..",csi,42,44,2,,,
,Question form,html.Form,2_3_3,,,,,,skipped,,167955.5,,,167952.89999997616,167956.20000004768,2024-07-30T18:25:52.700Z,168046.8,JzUOBPldlg,incremental,anketa,6645cf40bc81b65c5faccf1d,participant,hcpib7dulz8qxcvi,,,,,"Tko se nadaš da će napraviti prezentaciju, a Đure nacrtati sliku??","Nadaš se da će Vesna napraviti prezentaciju, a Đure nacrtati sliku..",csi,42,44,2,,,
,Answer indication,canvas.Screen,2_3_4,,,,,,skipped,,167961.60000002384,,,167952.89999997616,167962.70000004768,2024-07-30T18:25:52.706Z,168046.8,JzUOBPldlg,incremental,anketa,6645cf40bc81b65c5faccf1d,participant,hcpib7dulz8qxcvi,,,,,"Tko se nadaš da će napraviti prezentaciju, a Đure nacrtati sliku??","Nadaš se da će Vesna napraviti prezentaciju, a Đure nacrtati sliku..",csi,42,44,2,,,
,inter-stimulus,canvas.Screen,2_3_5,,,,,,response,719.5000000715372,167963.20000004768,167947.7,168046.8,168766.30000007153,169010.60000002384,2024-07-30T18:25:53.754Z,169088.4,JzUOBPldlg,incremental,anketa,6645cf40bc81b65c5faccf1d,participant,hcpib7dulz8qxcvi,,,mousedown,,"Tko se nadaš da će napraviti prezentaciju, a Đure nacrtati sliku??","Nadaš se da će Vesna napraviti prezentaciju, a Đure nacrtati sliku..",csi,42,44,2,,,
,Sequence,flow.Sequence,2_3,,,,,,completion,12398.400000071531,156282.5,156285.3,156367.9,168766.30000007153,169012.39999997616,2024-07-30T18:25:53.756Z,169088.4,JzUOBPldlg,incremental,anketa,6645cf40bc81b65c5faccf1d,participant,hcpib7dulz8qxcvi,,,,,"Tko se nadaš da će napraviti prezentaciju, a Đure nacrtati sliku??","Nadaš se da će Vesna napraviti prezentaciju, a Đure nacrtati sliku..",csi,42,44,2,,,
,context,canvas.Screen,2_4_0_0,,,,,,response,3453.999999976164,169015.39999997616,169022.2,169088.4,172542.39999997616,172738.89999997616,2024-07-30T18:25:57.482Z,172790.1,JzUOBPldlg,incremental,anketa,6645cf40bc81b65c5faccf1d,participant,hcpib7dulz8qxcvi,,,click,,Tko je jučer susjedu ukrao kobasicu?,Jučer je riđa mačka susjedu ukrala kobasicu.,gf,,,50,KOBASICU; KOBASICA,Što je ukrala mačka?,
,Timer frame,html.Frame,2_4_0,,,,,,,3650.8000000476895,169013.30000007153,169022.2,169088.4,172739.20000004768,172739.5,2024-07-30T18:25:57.483Z,172790.1,JzUOBPldlg,incremental,anketa,6645cf40bc81b65c5faccf1d,participant,hcpib7dulz8qxcvi,,,,,Tko je jučer susjedu ukrao kobasicu?,Jučer je riđa mačka susjedu ukrala kobasicu.,gf,,,50,KOBASICU; KOBASICA,Što je ukrala mačka?,
,stimulus,canvas.Screen,2_4_1_0,,,,,,response,4017.000000023836,172740.10000002384,172740.5,172790.1,176807.10000002384,177008.60000002384,2024-07-30T18:26:01.752Z,177066.3,JzUOBPldlg,incremental,anketa,6645cf40bc81b65c5faccf1d,participant,hcpib7dulz8qxcvi,,6,click @6,,Tko je jučer susjedu ukrao kobasicu?,Jučer je riđa mačka susjedu ukrala kobasicu.,gf,,,50,KOBASICU; KOBASICA,Što je ukrala mačka?,
,Timer frame,html.Frame,2_4_1,,,,,,,4219.299999976152,172739.80000007153,172740.5,172790.1,177009.39999997616,177010.39999997616,2024-07-30T18:26:01.754Z,177066.3,JzUOBPldlg,incremental,anketa,6645cf40bc81b65c5faccf1d,participant,hcpib7dulz8qxcvi,,,,,Tko je jučer susjedu ukrao kobasicu?,Jučer je riđa mačka susjedu ukrala kobasicu.,gf,,,50,KOBASICU; KOBASICA,Što je ukrala mačka?,
,Spremanje,canvas.Screen,2_4_2,,,,,,response,1204.8000000238535,177010.89999997616,177001.196,177066.3,178271.10000002384,178484.5,2024-07-30T18:26:03.228Z,178519.3,JzUOBPldlg,incremental,anketa,6645cf40bc81b65c5faccf1d,participant,hcpib7dulz8qxcvi,,,mousedown,,Tko je jučer susjedu ukrao kobasicu?,Jučer je riđa mačka susjedu ukrala kobasicu.,gf,,,50,KOBASICU; KOBASICA,Što je ukrala mačka?,
,Question form,html.Form,2_4_3,,,,,,form submission,4330.200000000012,178485,178502.8,178519.3,182849.5,182850.89999997616,2024-07-30T18:26:07.594Z,182919.576,JzUOBPldlg,incremental,anketa,6645cf40bc81b65c5faccf1d,participant,hcpib7dulz8qxcvi,,,,Kobasicu,Tko je jučer susjedu ukrao kobasicu?,Jučer je riđa mačka susjedu ukrala kobasicu.,gf,,,50,KOBASICU; KOBASICA,Što je ukrala mačka?,
,Answer indication,canvas.Screen,2_4_4,,,,,,response,804.4239999999991,182856.20000004768,182919.576,182919.576,183724,183991.89999997616,2024-07-30T18:26:08.735Z,184071.2,JzUOBPldlg,incremental,anketa,6645cf40bc81b65c5faccf1d,participant,hcpib7dulz8qxcvi,,,mousedown,,Tko je jučer susjedu ukrao kobasicu?,Jučer je riđa mačka susjedu ukrala kobasicu.,gf,,,50,KOBASICU; KOBASICA,Što je ukrala mačka?,
,inter-stimulus,canvas.Screen,2_4_5,,,,,,response,1736.7999999999884,183993,184005.1,184071.2,185808,186027.80000007153,2024-07-30T18:26:10.771Z,186106.3,JzUOBPldlg,incremental,anketa,6645cf40bc81b65c5faccf1d,participant,hcpib7dulz8qxcvi,,,mousedown,,Tko je jučer susjedu ukrao kobasicu?,Jučer je riđa mačka susjedu ukrala kobasicu.,gf,,,50,KOBASICU; KOBASICA,Što je ukrala mačka?,
,Sequence,flow.Sequence,2_4,,,,,,completion,16719.600000000006,169013,169022.2,169088.4,185808,186029.5,2024-07-30T18:26:10.773Z,186106.3,JzUOBPldlg,incremental,anketa,6645cf40bc81b65c5faccf1d,participant,hcpib7dulz8qxcvi,,,,,Tko je jučer susjedu ukrao kobasicu?,Jučer je riđa mačka susjedu ukrala kobasicu.,gf,,,50,KOBASICU; KOBASICA,Što je ukrala mačka?,
,context,canvas.Screen,2_5_0_0,,,,,,response,4743.500000071537,186031,186040.2,186106.3,190849.80000007153,191098.39999997616,2024-07-30T18:26:15.842Z,191179.2,JzUOBPldlg,incremental,anketa,6645cf40bc81b65c5faccf1d,participant,hcpib7dulz8qxcvi,,,click,,"To su oni siromasi, koje je htio nahraniti i moliti se bogu..",Hoće nahraniti siromahe i moliti se bogu.,csi,42,0,6,,,
,Timer frame,html.Frame,2_5_0,,,,,,,4992.900000047695,186030.39999997616,186040.2,186106.3,191099.20000004768,191099.80000007153,2024-07-30T18:26:15.843Z,191179.2,JzUOBPldlg,incremental,anketa,6645cf40bc81b65c5faccf1d,participant,hcpib7dulz8qxcvi,,,,,"To su oni siromasi, koje je htio nahraniti i moliti se bogu..",Hoće nahraniti siromahe i moliti se bogu.,csi,42,0,6,,,
,stimulus,canvas.Screen,2_5_1_0,,,,,,response,3507.500000047672,191101,191096.5,191179.2,194686.70000004768,194903.89999997616,2024-07-30T18:26:19.647Z,195011.1,JzUOBPldlg,incremental,anketa,6645cf40bc81b65c5faccf1d,participant,hcpib7dulz8qxcvi,,1,click @1,,"To su oni siromasi, koje je htio nahraniti i moliti se bogu..",Hoće nahraniti siromahe i moliti se bogu.,csi,42,0,6,,,
,Timer frame,html.Frame,2_5_1,,,,,,,3725.500000047672,191100.39999997616,191096.5,191179.2,194904.70000004768,194905.5,2024-07-30T18:26:19.649Z,195011.1,JzUOBPldlg,incremental,anketa,6645cf40bc81b65c5faccf1d,participant,hcpib7dulz8qxcvi,,,,,"To su oni siromasi, koje je htio nahraniti i moliti se bogu..",Hoće nahraniti siromahe i moliti se bogu.,csi,42,0,6,,,
,Spremanje,canvas.Screen,2_5_2,,,,,,skipped,,194906.80000007153,,,194904.70000004768,194907.39999997616,2024-07-30T18:26:19.651Z,195011.1,JzUOBPldlg,incremental,anketa,6645cf40bc81b65c5faccf1d,participant,hcpib7dulz8qxcvi,,,,,"To su oni siromasi, koje je htio nahraniti i moliti se bogu..",Hoće nahraniti siromahe i moliti se bogu.,csi,42,0,6,,,
,Question form,html.Form,2_5_3,,,,,,skipped,,194908.10000002384,,,194904.70000004768,194908.80000007153,2024-07-30T18:26:19.652Z,195011.1,JzUOBPldlg,incremental,anketa,6645cf40bc81b65c5faccf1d,participant,hcpib7dulz8qxcvi,,,,,"To su oni siromasi, koje je htio nahraniti i moliti se bogu..",Hoće nahraniti siromahe i moliti se bogu.,csi,42,0,6,,,
,Answer indication,canvas.Screen,2_5_4,,,,,,skipped,,194918.10000002384,,,194904.70000004768,194919,2024-07-30T18:26:19.663Z,195011.1,JzUOBPldlg,incremental,anketa,6645cf40bc81b65c5faccf1d,participant,hcpib7dulz8qxcvi,,,,,"To su oni siromasi, koje je htio nahraniti i moliti se bogu..",Hoće nahraniti siromahe i moliti se bogu.,csi,42,0,6,,,
,inter-stimulus,canvas.Screen,2_5_5,,,,,,response,721.2999999761523,194920.10000002384,194895.666,195011.1,195732.39999997616,195982.70000004768,2024-07-30T18:26:20.726Z,196051.4,JzUOBPldlg,incremental,anketa,6645cf40bc81b65c5faccf1d,participant,hcpib7dulz8qxcvi,,,mousedown,,"To su oni siromasi, koje je htio nahraniti i moliti se bogu..",Hoće nahraniti siromahe i moliti se bogu.,csi,42,0,6,,,
,Sequence,flow.Sequence,2_5,,,,,,completion,9626.09999997617,186030.10000002384,186040.2,186106.3,195732.39999997616,195984.60000002384,2024-07-30T18:26:20.728Z,196051.4,JzUOBPldlg,incremental,anketa,6645cf40bc81b65c5faccf1d,participant,hcpib7dulz8qxcvi,,,,,"To su oni siromasi, koje je htio nahraniti i moliti se bogu..",Hoće nahraniti siromahe i moliti se bogu.,csi,42,0,6,,,
,context,canvas.Screen,2_6_0_0,,,,,,response,3424.600000000006,195987.10000002384,195985.4,196051.4,199476,199702.5,2024-07-30T18:26:24.446Z,199769.7,JzUOBPldlg,incremental,anketa,6645cf40bc81b65c5faccf1d,participant,hcpib7dulz8qxcvi,,,click,,Komu tužno je gledati da ljudi i dalje daju novac??,Tužno je gledati da ljudi i dalje daju novac šarlatanima..,si,38,33,19,,,
,Timer frame,html.Frame,2_6_0,,,,,,,3651.8000000476895,195986.20000004768,195985.4,196051.4,199703.20000004768,199703.70000004768,2024-07-30T18:26:24.447Z,199769.7,JzUOBPldlg,incremental,anketa,6645cf40bc81b65c5faccf1d,participant,hcpib7dulz8qxcvi,,,,,Komu tužno je gledati da ljudi i dalje daju novac??,Tužno je gledati da ljudi i dalje daju novac šarlatanima..,si,38,33,19,,,
,stimulus,canvas.Screen,2_6_1_0,,,,,,response,1743.1999999761465,199704.80000007153,199687.266,199769.7,201512.89999997616,201738.39999997616,2024-07-30T18:26:26.482Z,201818.1,JzUOBPldlg,incremental,anketa,6645cf40bc81b65c5faccf1d,participant,hcpib7dulz8qxcvi,,1,click @1,,Komu tužno je gledati da ljudi i dalje daju novac??,Tužno je gledati da ljudi i dalje daju novac šarlatanima..,si,38,33,19,,,
,Timer frame,html.Frame,2_6_1,,,,,,,1969.600000071514,199704.30000007153,199687.266,199769.7,201739.30000007153,201740,2024-07-30T18:26:26.483Z,201818.1,JzUOBPldlg,incremental,anketa,6645cf40bc81b65c5faccf1d,participant,hcpib7dulz8qxcvi,,,,,Komu tužno je gledati da ljudi i dalje daju novac??,Tužno je gledati da ljudi i dalje daju novac šarlatanima..,si,38,33,19,,,
,Spremanje,canvas.Screen,2_6_2,,,,,,skipped,,201740.39999997616,,,201739.30000007153,201740.89999997616,2024-07-30T18:26:26.484Z,201818.1,JzUOBPldlg,incremental,anketa,6645cf40bc81b65c5faccf1d,participant,hcpib7dulz8qxcvi,,,,,Komu tužno je gledati da ljudi i dalje daju novac??,Tužno je gledati da ljudi i dalje daju novac šarlatanima..,si,38,33,19,,,
,Question form,html.Form,2_6_3,,,,,,skipped,,201741.30000007153,,,201739.30000007153,201741.89999997616,2024-07-30T18:26:26.485Z,201818.1,JzUOBPldlg,incremental,anketa,6645cf40bc81b65c5faccf1d,participant,hcpib7dulz8qxcvi,,,,,Komu tužno je gledati da ljudi i dalje daju novac??,Tužno je gledati da ljudi i dalje daju novac šarlatanima..,si,38,33,19,,,
,Answer indication,canvas.Screen,2_6_4,,,,,,skipped,,201748.80000007153,,,201739.30000007153,201749.5,2024-07-30T18:26:26.493Z,201818.1,JzUOBPldlg,incremental,anketa,6645cf40bc81b65c5faccf1d,participant,hcpib7dulz8qxcvi,,,,,Komu tužno je gledati da ljudi i dalje daju novac??,Tužno je gledati da ljudi i dalje daju novac šarlatanima..,si,38,33,19,,,
,inter-stimulus,canvas.Screen,2_6_5,,,,,,response,834.1000000476779,201750.30000007153,201735.5,201818.1,202652.20000004768,202888.5,2024-07-30T18:26:27.632Z,202957.7,JzUOBPldlg,incremental,anketa,6645cf40bc81b65c5faccf1d,participant,hcpib7dulz8qxcvi,,,mousedown,,Komu tužno je gledati da ljudi i dalje daju novac??,Tužno je gledati da ljudi i dalje daju novac šarlatanima..,si,38,33,19,,,
,Sequence,flow.Sequence,2_6,,,,,,completion,6600.8000000476895,195985.39999997616,195985.4,196051.4,202652.20000004768,202890.30000007153,2024-07-30T18:26:27.634Z,202957.7,JzUOBPldlg,incremental,anketa,6645cf40bc81b65c5faccf1d,participant,hcpib7dulz8qxcvi,,,,,Komu tužno je gledati da ljudi i dalje daju novac??,Tužno je gledati da ljudi i dalje daju novac šarlatanima..,si,38,33,19,,,
,context,canvas.Screen,2_7_0_0,,,,,,response,4429.299999999988,202891.80000007153,202891.6,202957.7,207387,207577.20000004768,2024-07-30T18:26:32.321Z,207651.1,JzUOBPldlg,incremental,anketa,6645cf40bc81b65c5faccf1d,participant,hcpib7dulz8qxcvi,,,click,,"Što je kupio tata, i spremila je majka?","Tata je kupio meso, a majka je spremila salatu.",csi,,,7,,,
,Timer frame,html.Frame,2_7_0,,,,,,,4620.500000047672,202891.10000002384,202891.6,202957.7,207578.20000004768,207579.60000002384,2024-07-30T18:26:32.323Z,207651.1,JzUOBPldlg,incremental,anketa,6645cf40bc81b65c5faccf1d,participant,hcpib7dulz8qxcvi,,,,,"Što je kupio tata, i spremila je majka?","Tata je kupio meso, a majka je spremila salatu.",csi,,,7,,,
,stimulus,canvas.Screen,2_7_1_0,,,,,,response,3287.600000047678,207581.80000007153,207585.1,207651.1,210938.70000004768,211155,2024-07-30T18:26:35.898Z,211239.7,JzUOBPldlg,incremental,anketa,6645cf40bc81b65c5faccf1d,participant,hcpib7dulz8qxcvi,,1,click @1,,"Što je kupio tata, i spremila je majka?","Tata je kupio meso, a majka je spremila salatu.",csi,,,7,,,
,Timer frame,html.Frame,2_7_1,,,,,,,3504.7999999761523,207580.89999997616,207585.1,207651.1,211155.89999997616,211156.39999997616,2024-07-30T18:26:35.900Z,211239.7,JzUOBPldlg,incremental,anketa,6645cf40bc81b65c5faccf1d,participant,hcpib7dulz8qxcvi,,,,,"Što je kupio tata, i spremila je majka?","Tata je kupio meso, a majka je spremila salatu.",csi,,,7,,,
,Spremanje,canvas.Screen,2_7_2,,,,,,skipped,,211156.80000007153,,,211155.89999997616,211157.30000007153,2024-07-30T18:26:35.901Z,211239.7,JzUOBPldlg,incremental,anketa,6645cf40bc81b65c5faccf1d,participant,hcpib7dulz8qxcvi,,,,,"Što je kupio tata, i spremila je majka?","Tata je kupio meso, a majka je spremila salatu.",csi,,,7,,,
,Question form,html.Form,2_7_3,,,,,,skipped,,211158.20000004768,,,211155.89999997616,211158.89999997616,2024-07-30T18:26:35.902Z,211239.7,JzUOBPldlg,incremental,anketa,6645cf40bc81b65c5faccf1d,participant,hcpib7dulz8qxcvi,,,,,"Što je kupio tata, i spremila je majka?","Tata je kupio meso, a majka je spremila salatu.",csi,,,7,,,
,Answer indication,canvas.Screen,2_7_4,,,,,,skipped,,211164.30000007153,,,211155.89999997616,211165,2024-07-30T18:26:35.908Z,211239.7,JzUOBPldlg,incremental,anketa,6645cf40bc81b65c5faccf1d,participant,hcpib7dulz8qxcvi,,,,,"Što je kupio tata, i spremila je majka?","Tata je kupio meso, a majka je spremila salatu.",csi,,,7,,,
,inter-stimulus,canvas.Screen,2_7_5,,,,,,response,679.1000000715139,211165.60000002384,211157.1,211239.7,211918.80000007153,212154.70000004768,2024-07-30T18:26:36.898Z,212213.9,JzUOBPldlg,incremental,anketa,6645cf40bc81b65c5faccf1d,participant,hcpib7dulz8qxcvi,,,mousedown,,"Što je kupio tata, i spremila je majka?","Tata je kupio meso, a majka je spremila salatu.",csi,,,7,,,
,Sequence,flow.Sequence,2_7,,,,,,completion,8961.100000071514,202890.89999997616,202891.6,202957.7,211918.80000007153,212156.30000007153,2024-07-30T18:26:36.900Z,212213.9,JzUOBPldlg,incremental,anketa,6645cf40bc81b65c5faccf1d,participant,hcpib7dulz8qxcvi,,,,,"Što je kupio tata, i spremila je majka?","Tata je kupio meso, a majka je spremila salatu.",csi,,,7,,,
,context,canvas.Screen,2_8_0_0,,,,,,response,4109.600000000006,212158,212164.6,212213.9,216323.5,216535.5,2024-07-30T18:26:41.279Z,216624.1,JzUOBPldlg,incremental,anketa,6645cf40bc81b65c5faccf1d,participant,hcpib7dulz8qxcvi,,,click,,Za kim su banditi imali pitanja?,Ti banditi su imali pitanja za mene.,nf,,,40,,,
,Timer frame,html.Frame,2_8_0,,,,,,,4322.400000071531,212157.20000004768,212164.6,212213.9,216536.30000007153,216536.89999997616,2024-07-30T18:26:41.280Z,216624.1,JzUOBPldlg,incremental,anketa,6645cf40bc81b65c5faccf1d,participant,hcpib7dulz8qxcvi,,,,,Za kim su banditi imali pitanja?,Ti banditi su imali pitanja za mene.,nf,,,40,,,
,stimulus,canvas.Screen,2_8_1_0,,,,,,response,3299.7999999761523,216538.5,216541.5,216624.1,219923.89999997616,220129.39999997616,2024-07-30T18:26:44.873Z,220208,JzUOBPldlg,incremental,anketa,6645cf40bc81b65c5faccf1d,participant,hcpib7dulz8qxcvi,,1,click @1,,Za kim su banditi imali pitanja?,Ti banditi su imali pitanja za mene.,nf,,,40,,,
,Timer frame,html.Frame,2_8_1,,,,,,,3506.500000023836,216537.39999997616,216541.5,216624.1,220130.60000002384,220131.30000007153,2024-07-30T18:26:44.875Z,220208,JzUOBPldlg,incremental,anketa,6645cf40bc81b65c5faccf1d,participant,hcpib7dulz8qxcvi,,,,,Za kim su banditi imali pitanja?,Ti banditi su imali pitanja za mene.,nf,,,40,,,
,Spremanje,canvas.Screen,2_8_2,,,,,,skipped,,220132.10000002384,,,220130.60000002384,220132.70000004768,2024-07-30T18:26:44.876Z,220208,JzUOBPldlg,incremental,anketa,6645cf40bc81b65c5faccf1d,participant,hcpib7dulz8qxcvi,,,,,Za kim su banditi imali pitanja?,Ti banditi su imali pitanja za mene.,nf,,,40,,,
,Question form,html.Form,2_8_3,,,,,,skipped,,220133.20000004768,,,220130.60000002384,220134.30000007153,2024-07-30T18:26:44.878Z,220208,JzUOBPldlg,incremental,anketa,6645cf40bc81b65c5faccf1d,participant,hcpib7dulz8qxcvi,,,,,Za kim su banditi imali pitanja?,Ti banditi su imali pitanja za mene.,nf,,,40,,,
,Answer indication,canvas.Screen,2_8_4,,,,,,skipped,,220140.70000004768,,,220130.60000002384,220141.80000007153,2024-07-30T18:26:44.885Z,220208,JzUOBPldlg,incremental,anketa,6645cf40bc81b65c5faccf1d,participant,hcpib7dulz8qxcvi,,,,,Za kim su banditi imali pitanja?,Ti banditi su imali pitanja za mene.,nf,,,40,,,
,inter-stimulus,canvas.Screen,2_8_5,,,,,,response,916.8000000715256,220142.5,220125.4,220208,221124.80000007153,221389.10000002384,2024-07-30T18:26:46.133Z,221463.2,JzUOBPldlg,incremental,anketa,6645cf40bc81b65c5faccf1d,participant,hcpib7dulz8qxcvi,,,mousedown,,Za kim su banditi imali pitanja?,Ti banditi su imali pitanja za mene.,nf,,,40,,,
,Sequence,flow.Sequence,2_8,,,,,,completion,8910.900000071531,212156.89999997616,212164.6,212213.9,221124.80000007153,221390.70000004768,2024-07-30T18:26:46.134Z,221463.2,JzUOBPldlg,incremental,anketa,6645cf40bc81b65c5faccf1d,participant,hcpib7dulz8qxcvi,,,,,Za kim su banditi imali pitanja?,Ti banditi su imali pitanja za mene.,nf,,,40,,,
,context,canvas.Screen,2_9_0_0,,,,,,response,4270.6999999761465,221392.30000007153,221397.1,221463.2,225733.89999997616,225975.30000007153,2024-07-30T18:26:50.719Z,226041.9,JzUOBPldlg,incremental,anketa,6645cf40bc81b65c5faccf1d,participant,hcpib7dulz8qxcvi,,,click,,Sanjam dvorac iz kojeg se čuje glasan plač daleko..,Sanjam dvorac daleko iz kojeg se čuje glasan plač..,ai,30,37,26,,,
,Timer frame,html.Frame,2_9_0,,,,,,,4512.799999999988,221391.70000004768,221397.1,221463.2,225976,225976.5,2024-07-30T18:26:50.720Z,226041.9,JzUOBPldlg,incremental,anketa,6645cf40bc81b65c5faccf1d,participant,hcpib7dulz8qxcvi,,,,,Sanjam dvorac iz kojeg se čuje glasan plač daleko..,Sanjam dvorac daleko iz kojeg se čuje glasan plač..,ai,30,37,26,,,
,stimulus,canvas.Screen,2_9_1_0,,,,,,response,3701.9000000715314,225978,225975.7,226041.9,229743.80000007153,229962.89999997616,2024-07-30T18:26:54.706Z,230060.3,JzUOBPldlg,incremental,anketa,6645cf40bc81b65c5faccf1d,participant,hcpib7dulz8qxcvi,,1,click @1,,Sanjam dvorac iz kojeg se čuje glasan plač daleko..,Sanjam dvorac daleko iz kojeg se čuje glasan plač..,ai,30,37,26,,,
,Timer frame,html.Frame,2_9_1,,,,,,,3921.600000000006,225977.20000004768,225975.7,226041.9,229963.5,229964,2024-07-30T18:26:54.708Z,230060.3,JzUOBPldlg,incremental,anketa,6645cf40bc81b65c5faccf1d,participant,hcpib7dulz8qxcvi,,,,,Sanjam dvorac iz kojeg se čuje glasan plač daleko..,Sanjam dvorac daleko iz kojeg se čuje glasan plač..,ai,30,37,26,,,
,Spremanje,canvas.Screen,2_9_2,,,,,,skipped,,229964.39999997616,,,229963.5,229964.89999997616,2024-07-30T18:26:54.708Z,230060.3,JzUOBPldlg,incremental,anketa,6645cf40bc81b65c5faccf1d,participant,hcpib7dulz8qxcvi,,,,,Sanjam dvorac iz kojeg se čuje glasan plač daleko..,Sanjam dvorac daleko iz kojeg se čuje glasan plač..,ai,30,37,26,,,
,Question form,html.Form,2_9_3,,,,,,skipped,,229965.39999997616,,,229963.5,229966.10000002384,2024-07-30T18:26:54.710Z,230060.3,JzUOBPldlg,incremental,anketa,6645cf40bc81b65c5faccf1d,participant,hcpib7dulz8qxcvi,,,,,Sanjam dvorac iz kojeg se čuje glasan plač daleko..,Sanjam dvorac daleko iz kojeg se čuje glasan plač..,ai,30,37,26,,,
,Answer indication,canvas.Screen,2_9_4,,,,,,skipped,,229971,,,229963.5,229971.70000004768,2024-07-30T18:26:54.715Z,230060.3,JzUOBPldlg,incremental,anketa,6645cf40bc81b65c5faccf1d,participant,hcpib7dulz8qxcvi,,,,,Sanjam dvorac iz kojeg se čuje glasan plač daleko..,Sanjam dvorac daleko iz kojeg se čuje glasan plač..,ai,30,37,26,,,
,inter-stimulus,canvas.Screen,2_9_5,,,,,,response,681.5000000715372,229972.30000007153,229961.3,230060.3,230741.80000007153,230959.89999997616,2024-07-30T18:26:55.703Z,231034.9,JzUOBPldlg,incremental,anketa,6645cf40bc81b65c5faccf1d,participant,hcpib7dulz8qxcvi,,,mousedown,,Sanjam dvorac iz kojeg se čuje glasan plač daleko..,Sanjam dvorac daleko iz kojeg se čuje glasan plač..,ai,30,37,26,,,
,Sequence,flow.Sequence,2_9,,,,,,completion,9278.600000071514,221391.30000007153,221397.1,221463.2,230741.80000007153,230961.30000007153,2024-07-30T18:26:55.705Z,231034.9,JzUOBPldlg,incremental,anketa,6645cf40bc81b65c5faccf1d,participant,hcpib7dulz8qxcvi,,,,,Sanjam dvorac iz kojeg se čuje glasan plač daleko..,Sanjam dvorac daleko iz kojeg se čuje glasan plač..,ai,30,37,26,,,
,context,canvas.Screen,2_10_0_0,,,,,,response,3373.9000000715314,230962.80000007153,230968.7,231034.9,234408.80000007153,234626.20000004768,2024-07-30T18:26:59.370Z,234718.4,JzUOBPldlg,incremental,anketa,6645cf40bc81b65c5faccf1d,participant,hcpib7dulz8qxcvi,,,click,,Tko ono da je prodao svoj stan za toliki novac nevjerojatno je??,Ono da je Goran prodao svoj stan za toliki novac nevjerojatno je..,si,30,32,17,,,
,Timer frame,html.Frame,2_10_0,,,,,,,3591.999999976164,230962.30000007153,230968.7,231034.9,234626.89999997616,234627.5,2024-07-30T18:26:59.371Z,234718.4,JzUOBPldlg,incremental,anketa,6645cf40bc81b65c5faccf1d,participant,hcpib7dulz8qxcvi,,,,,Tko ono da je prodao svoj stan za toliki novac nevjerojatno je??,Ono da je Goran prodao svoj stan za toliki novac nevjerojatno je..,si,30,32,17,,,
,stimulus,canvas.Screen,2_10_1_0,,,,,,response,4239.100000000006,234628.80000007153,234635.8,234718.4,238957.5,239196.60000002384,2024-07-30T18:27:03.940Z,239277.1,JzUOBPldlg,incremental,anketa,6645cf40bc81b65c5faccf1d,participant,hcpib7dulz8qxcvi,,1,click @1,,Tko ono da je prodao svoj stan za toliki novac nevjerojatno je??,Ono da je Goran prodao svoj stan za toliki novac nevjerojatno je..,si,30,32,17,,,
,Timer frame,html.Frame,2_10_1,,,,,,,4479.100000000006,234628,234635.8,234718.4,239197.5,239198.39999997616,2024-07-30T18:27:03.942Z,239277.1,JzUOBPldlg,incremental,anketa,6645cf40bc81b65c5faccf1d,participant,hcpib7dulz8qxcvi,,,,,Tko ono da je prodao svoj stan za toliki novac nevjerojatno je??,Ono da je Goran prodao svoj stan za toliki novac nevjerojatno je..,si,30,32,17,,,
,Spremanje,canvas.Screen,2_10_2,,,,,,skipped,,239198.89999997616,,,239197.5,239199.39999997616,2024-07-30T18:27:03.943Z,239277.1,JzUOBPldlg,incremental,anketa,6645cf40bc81b65c5faccf1d,participant,hcpib7dulz8qxcvi,,,,,Tko ono da je prodao svoj stan za toliki novac nevjerojatno je??,Ono da je Goran prodao svoj stan za toliki novac nevjerojatno je..,si,30,32,17,,,
,Question form,html.Form,2_10_3,,,,,,skipped,,239199.89999997616,,,239197.5,239200.5,2024-07-30T18:27:03.944Z,239277.1,JzUOBPldlg,incremental,anketa,6645cf40bc81b65c5faccf1d,participant,hcpib7dulz8qxcvi,,,,,Tko ono da je prodao svoj stan za toliki novac nevjerojatno je??,Ono da je Goran prodao svoj stan za toliki novac nevjerojatno je..,si,30,32,17,,,
,Answer indication,canvas.Screen,2_10_4,,,,,,skipped,,239207,,,239197.5,239207.5,2024-07-30T18:27:03.951Z,239277.1,JzUOBPldlg,incremental,anketa,6645cf40bc81b65c5faccf1d,participant,hcpib7dulz8qxcvi,,,,,Tko ono da je prodao svoj stan za toliki novac nevjerojatno je??,Ono da je Goran prodao svoj stan za toliki novac nevjerojatno je..,si,30,32,17,,,
,inter-stimulus,canvas.Screen,2_10_5,,,,,,response,955.2000000715198,239208,239194.5,239277.1,240232.30000007153,240456.20000004768,2024-07-30T18:27:05.200Z,240565.7,JzUOBPldlg,incremental,anketa,6645cf40bc81b65c5faccf1d,participant,hcpib7dulz8qxcvi,,,mousedown,,Tko ono da je prodao svoj stan za toliki novac nevjerojatno je??,Ono da je Goran prodao svoj stan za toliki novac nevjerojatno je..,si,30,32,17,,,
,Sequence,flow.Sequence,2_10,,,,,,completion,9197.400000071531,230961.89999997616,230968.7,231034.9,240232.30000007153,240458.39999997616,2024-07-30T18:27:05.202Z,240565.7,JzUOBPldlg,incremental,anketa,6645cf40bc81b65c5faccf1d,participant,hcpib7dulz8qxcvi,,,,,Tko ono da je prodao svoj stan za toliki novac nevjerojatno je??,Ono da je Goran prodao svoj stan za toliki novac nevjerojatno je..,si,30,32,17,,,
,context,canvas.Screen,2_11_0_0,,,,,,response,3249.600000071514,240459.89999997616,240466.6,240565.7,243815.30000007153,244047.60000002384,2024-07-30T18:27:08.791Z,244120,JzUOBPldlg,incremental,anketa,6645cf40bc81b65c5faccf1d,participant,hcpib7dulz8qxcvi,,,click,,"Oni su se svađali navečer, ali ujutro su sve pritužbe već bile zaboravljene..","Navečer su se svađali, ali ujutro su sve pritužbe već bile zaboravljene..",gf,44,40,48,,,
,Timer frame,html.Frame,2_11_0,,,,,,,3483.100000071514,240459.20000004768,240466.6,240565.7,244048.80000007153,244050.10000002384,2024-07-30T18:27:08.794Z,244120,JzUOBPldlg,incremental,anketa,6645cf40bc81b65c5faccf1d,participant,hcpib7dulz8qxcvi,,,,,"Oni su se svađali navečer, ali ujutro su sve pritužbe već bile zaboravljene..","Navečer su se svađali, ali ujutro su sve pritužbe već bile zaboravljene..",gf,44,40,48,,,
,stimulus,canvas.Screen,2_11_1_0,,,,,,response,5567.600000023842,244051.89999997616,244053.8,244120,249687.60000002384,249877,2024-07-30T18:27:14.621Z,249951,JzUOBPldlg,incremental,anketa,6645cf40bc81b65c5faccf1d,participant,hcpib7dulz8qxcvi,,6,click @6,,"Oni su se svađali navečer, ali ujutro su sve pritužbe već bile zaboravljene..","Navečer su se svađali, ali ujutro su sve pritužbe već bile zaboravljene..",gf,44,40,48,,,
,Timer frame,html.Frame,2_11_1,,,,,,,5757.800000071526,244051,244053.8,244120,249877.80000007153,249878.39999997616,2024-07-30T18:27:14.622Z,249951,JzUOBPldlg,incremental,anketa,6645cf40bc81b65c5faccf1d,participant,hcpib7dulz8qxcvi,,,,,"Oni su se svađali navečer, ali ujutro su sve pritužbe već bile zaboravljene..","Navečer su se svađali, ali ujutro su sve pritužbe već bile zaboravljene..",gf,44,40,48,,,
,Spremanje,canvas.Screen,2_11_2,,,,,,skipped,,249878.80000007153,,,249877.80000007153,249879.30000007153,2024-07-30T18:27:14.623Z,249951,JzUOBPldlg,incremental,anketa,6645cf40bc81b65c5faccf1d,participant,hcpib7dulz8qxcvi,,,,,"Oni su se svađali navečer, ali ujutro su sve pritužbe već bile zaboravljene..","Navečer su se svađali, ali ujutro su sve pritužbe već bile zaboravljene..",gf,44,40,48,,,
,Question form,html.Form,2_11_3,,,,,,skipped,,249879.70000004768,,,249877.80000007153,249880.20000004768,2024-07-30T18:27:14.624Z,249951,JzUOBPldlg,incremental,anketa,6645cf40bc81b65c5faccf1d,participant,hcpib7dulz8qxcvi,,,,,"Oni su se svađali navečer, ali ujutro su sve pritužbe već bile zaboravljene..","Navečer su se svađali, ali ujutro su sve pritužbe već bile zaboravljene..",gf,44,40,48,,,
,Answer indication,canvas.Screen,2_11_4,,,,,,skipped,,249884.89999997616,,,249877.80000007153,249885.60000002384,2024-07-30T18:27:14.629Z,249951,JzUOBPldlg,incremental,anketa,6645cf40bc81b65c5faccf1d,participant,hcpib7dulz8qxcvi,,,,,"Oni su se svađali navečer, ali ujutro su sve pritužbe već bile zaboravljene..","Navečer su se svađali, ali ujutro su sve pritužbe već bile zaboravljene..",gf,44,40,48,,,
,inter-stimulus,canvas.Screen,2_11_5,,,,,,response,821.2000000476837,249886.20000004768,249885.1,249951,250772.20000004768,250999.30000007153,2024-07-30T18:27:15.743Z,251073.9,JzUOBPldlg,incremental,anketa,6645cf40bc81b65c5faccf1d,participant,hcpib7dulz8qxcvi,,,mousedown,,"Oni su se svađali navečer, ali ujutro su sve pritužbe već bile zaboravljene..","Navečer su se svađali, ali ujutro su sve pritužbe već bile zaboravljene..",gf,44,40,48,,,
,Sequence,flow.Sequence,2_11,,,,,,completion,10206.500000047672,240459,240466.6,240565.7,250772.20000004768,251000.80000007153,2024-07-30T18:27:15.744Z,251073.9,JzUOBPldlg,incremental,anketa,6645cf40bc81b65c5faccf1d,participant,hcpib7dulz8qxcvi,,,,,"Oni su se svađali navečer, ali ujutro su sve pritužbe već bile zaboravljene..","Navečer su se svađali, ali ujutro su sve pritužbe već bile zaboravljene..",gf,44,40,48,,,
,context,canvas.Screen,2_12_0_0,,,,,,response,2695.600000000006,251002.39999997616,251007.8,251073.9,253769.5,253993.20000004768,2024-07-30T18:27:18.737Z,254068.5,JzUOBPldlg,incremental,anketa,6645cf40bc81b65c5faccf1d,participant,hcpib7dulz8qxcvi,,,click,,Što ćemo uništit i saditi vrtove?,Uništit ćemo carstva i saditi vrtove.,csi,0,0,5,,,
,Timer frame,html.Frame,2_12_0,,,,,,,2920.600000000006,251001.80000007153,251007.8,251073.9,253994.5,253995.30000007153,2024-07-30T18:27:18.739Z,254068.5,JzUOBPldlg,incremental,anketa,6645cf40bc81b65c5faccf1d,participant,hcpib7dulz8qxcvi,,,,,Što ćemo uništit i saditi vrtove?,Uništit ćemo carstva i saditi vrtove.,csi,0,0,5,,,
,stimulus,canvas.Screen,2_12_1_0,,,,,,response,1952,253996.60000002384,253986.496,254068.5,256020.5,256236.60000002384,2024-07-30T18:27:20.980Z,256329.5,JzUOBPldlg,incremental,anketa,6645cf40bc81b65c5faccf1d,participant,hcpib7dulz8qxcvi,,1,click @1,,Što ćemo uništit i saditi vrtove?,Uništit ćemo carstva i saditi vrtove.,csi,0,0,5,,,
,Timer frame,html.Frame,2_12_1,,,,,,,2169.399999976158,253995.89999997616,253986.496,254068.5,256237.89999997616,256238.80000007153,2024-07-30T18:27:20.982Z,256329.5,JzUOBPldlg,incremental,anketa,6645cf40bc81b65c5faccf1d,participant,hcpib7dulz8qxcvi,,,,,Što ćemo uništit i saditi vrtove?,Uništit ćemo carstva i saditi vrtove.,csi,0,0,5,,,
,Spremanje,canvas.Screen,2_12_2,,,,,,skipped,,256239.60000002384,,,256237.89999997616,256240.30000007153,2024-07-30T18:27:20.984Z,256329.5,JzUOBPldlg,incremental,anketa,6645cf40bc81b65c5faccf1d,participant,hcpib7dulz8qxcvi,,,,,Što ćemo uništit i saditi vrtove?,Uništit ćemo carstva i saditi vrtove.,csi,0,0,5,,,
,Question form,html.Form,2_12_3,,,,,,skipped,,256240.80000007153,,,256237.89999997616,256241.30000007153,2024-07-30T18:27:20.985Z,256329.5,JzUOBPldlg,incremental,anketa,6645cf40bc81b65c5faccf1d,participant,hcpib7dulz8qxcvi,,,,,Što ćemo uništit i saditi vrtove?,Uništit ćemo carstva i saditi vrtove.,csi,0,0,5,,,
,Answer indication,canvas.Screen,2_12_4,,,,,,skipped,,256248.20000004768,,,256237.89999997616,256248.80000007153,2024-07-30T18:27:20.992Z,256329.5,JzUOBPldlg,incremental,anketa,6645cf40bc81b65c5faccf1d,participant,hcpib7dulz8qxcvi,,,,,Što ćemo uništit i saditi vrtove?,Uništit ćemo carstva i saditi vrtove.,csi,0,0,5,,,
,inter-stimulus,canvas.Screen,2_12_5,,,,,,response,852.2000000476837,256249.39999997616,256246.9,256329.5,257181.70000004768,257403.70000004768,2024-07-30T18:27:22.147Z,257501.8,JzUOBPldlg,incremental,anketa,6645cf40bc81b65c5faccf1d,participant,hcpib7dulz8qxcvi,,,mousedown,,Što ćemo uništit i saditi vrtove?,Uništit ćemo carstva i saditi vrtove.,csi,0,0,5,,,
,Sequence,flow.Sequence,2_12,,,,,,completion,6107.8000000476895,251001.5,251007.8,251073.9,257181.70000004768,257405.10000002384,2024-07-30T18:27:22.149Z,257501.8,JzUOBPldlg,incremental,anketa,6645cf40bc81b65c5faccf1d,participant,hcpib7dulz8qxcvi,,,,,Što ćemo uništit i saditi vrtove?,Uništit ćemo carstva i saditi vrtove.,csi,0,0,5,,,
,context,canvas.Screen,2_13_0_0,,,,,,response,4146.3000000238535,257407.30000007153,257419.2,257501.8,261648.10000002384,261904.89999997616,2024-07-30T18:27:26.648Z,261978.3,JzUOBPldlg,incremental,anketa,6645cf40bc81b65c5faccf1d,participant,hcpib7dulz8qxcvi,,,click,,Petar i Mara su jučer otišli u kino pogledati dobru komediju..,Jučer su Petar i Mara otišli u kino pogledati dobru komediju..,gf,35,35,46,,,
,Timer frame,html.Frame,2_13_0,,,,,,,4404.400000047695,257406.5,257419.2,257501.8,261906.20000004768,261907.10000002384,2024-07-30T18:27:26.651Z,261978.3,JzUOBPldlg,incremental,anketa,6645cf40bc81b65c5faccf1d,participant,hcpib7dulz8qxcvi,,,,,Petar i Mara su jučer otišli u kino pogledati dobru komediju..,Jučer su Petar i Mara otišli u kino pogledati dobru komediju..,gf,35,35,46,,,
,stimulus,canvas.Screen,2_13_1_0,,,,,,response,4422.900000047695,261908.30000007153,261912.2,261978.3,266401.2000000477,266622.60000002384,2024-07-30T18:27:31.366Z,266735.4,JzUOBPldlg,incremental,anketa,6645cf40bc81b65c5faccf1d,participant,hcpib7dulz8qxcvi,,5,click @5,,Petar i Mara su jučer otišli u kino pogledati dobru komediju..,Jučer su Petar i Mara otišli u kino pogledati dobru komediju..,gf,35,35,46,,,
,Timer frame,html.Frame,2_13_1,,,,,,,4645.09999997617,261907.60000002384,261912.2,261978.3,266623.39999997616,266623.89999997616,2024-07-30T18:27:31.367Z,266735.4,JzUOBPldlg,incremental,anketa,6645cf40bc81b65c5faccf1d,participant,hcpib7dulz8qxcvi,,,,,Petar i Mara su jučer otišli u kino pogledati dobru komediju..,Jučer su Petar i Mara otišli u kino pogledati dobru komediju..,gf,35,35,46,,,
,Spremanje,canvas.Screen,2_13_2,,,,,,skipped,,266624.3000000715,,,266623.39999997616,266624.8000000715,2024-07-30T18:27:31.368Z,266735.4,JzUOBPldlg,incremental,anketa,6645cf40bc81b65c5faccf1d,participant,hcpib7dulz8qxcvi,,,,,Petar i Mara su jučer otišli u kino pogledati dobru komediju..,Jučer su Petar i Mara otišli u kino pogledati dobru komediju..,gf,35,35,46,,,
,Question form,html.Form,2_13_3,,,,,,skipped,,266625.2000000477,,,266623.39999997616,266626.10000002384,2024-07-30T18:27:31.370Z,266735.4,JzUOBPldlg,incremental,anketa,6645cf40bc81b65c5faccf1d,participant,hcpib7dulz8qxcvi,,,,,Petar i Mara su jučer otišli u kino pogledati dobru komediju..,Jučer su Petar i Mara otišli u kino pogledati dobru komediju..,gf,35,35,46,,,
,Answer indication,canvas.Screen,2_13_4,,,,,,skipped,,266631.2000000477,,,266623.39999997616,266632.10000002384,2024-07-30T18:27:31.376Z,266735.4,JzUOBPldlg,incremental,anketa,6645cf40bc81b65c5faccf1d,participant,hcpib7dulz8qxcvi,,,,,Petar i Mara su jučer otišli u kino pogledati dobru komediju..,Jučer su Petar i Mara otišli u kino pogledati dobru komediju..,gf,35,35,46,,,
,inter-stimulus,canvas.Screen,2_13_5,,,,,,response,803.9999999761349,266632.60000002384,266603.366,266735.4,267539.39999997616,267772.7000000477,2024-07-30T18:27:32.516Z,267858.6,JzUOBPldlg,incremental,anketa,6645cf40bc81b65c5faccf1d,participant,hcpib7dulz8qxcvi,,,mousedown,,Petar i Mara su jučer otišli u kino pogledati dobru komediju..,Jučer su Petar i Mara otišli u kino pogledati dobru komediju..,gf,35,35,46,,,
,Sequence,flow.Sequence,2_13,,,,,,completion,10037.59999997617,257406.20000004768,257419.2,257501.8,267539.39999997616,267774.7000000477,2024-07-30T18:27:32.518Z,267858.6,JzUOBPldlg,incremental,anketa,6645cf40bc81b65c5faccf1d,participant,hcpib7dulz8qxcvi,,,,,Petar i Mara su jučer otišli u kino pogledati dobru komediju..,Jučer su Petar i Mara otišli u kino pogledati dobru komediju..,gf,35,35,46,,,
,context,canvas.Screen,2_14_0_0,,,,,,response,2538.7999999761814,267776.2000000477,267776.1,267858.6,270397.39999997616,270614,2024-07-30T18:27:35.358Z,270716.2,JzUOBPldlg,incremental,anketa,6645cf40bc81b65c5faccf1d,participant,hcpib7dulz8qxcvi,,,click,,Tko je ovo bio jasan slučaj da je zapravo pohlepna osoba??,Ovo je bio jasan slučaj da je on zapravo pohlepna osoba..,cnp,41,40,8,,,
,Timer frame,html.Frame,2_14_0,,,,,,,2756.100000047707,267775.5,267776.1,267858.6,270614.7000000477,270615.2000000477,2024-07-30T18:27:35.359Z,270716.2,JzUOBPldlg,incremental,anketa,6645cf40bc81b65c5faccf1d,participant,hcpib7dulz8qxcvi,,,,,Tko je ovo bio jasan slučaj da je zapravo pohlepna osoba??,Ovo je bio jasan slučaj da je on zapravo pohlepna osoba..,cnp,41,40,8,,,
,stimulus,canvas.Screen,2_14_1_0,,,,,,response,1924.6999999761465,270616.3000000715,270617.1,270716.2,272640.89999997616,272861.5,2024-07-30T18:27:37.605Z,272945.7,JzUOBPldlg,incremental,anketa,6645cf40bc81b65c5faccf1d,participant,hcpib7dulz8qxcvi,,1,click @1,,Tko je ovo bio jasan slučaj da je zapravo pohlepna osoba??,Ovo je bio jasan slučaj da je on zapravo pohlepna osoba..,cnp,41,40,8,,,
,Timer frame,html.Frame,2_14_1,,,,,,,2146.6999999761465,270615.7000000477,270617.1,270716.2,272862.89999997616,272863.8000000715,2024-07-30T18:27:37.607Z,272945.7,JzUOBPldlg,incremental,anketa,6645cf40bc81b65c5faccf1d,participant,hcpib7dulz8qxcvi,,,,,Tko je ovo bio jasan slučaj da je zapravo pohlepna osoba??,Ovo je bio jasan slučaj da je on zapravo pohlepna osoba..,cnp,41,40,8,,,
,Spremanje,canvas.Screen,2_14_2,,,,,,skipped,,272864.39999997616,,,272862.89999997616,272864.89999997616,2024-07-30T18:27:37.608Z,272945.7,JzUOBPldlg,incremental,anketa,6645cf40bc81b65c5faccf1d,participant,hcpib7dulz8qxcvi,,,,,Tko je ovo bio jasan slučaj da je zapravo pohlepna osoba??,Ovo je bio jasan slučaj da je on zapravo pohlepna osoba..,cnp,41,40,8,,,
,Question form,html.Form,2_14_3,,,,,,skipped,,272865.5,,,272862.89999997616,272866.7000000477,2024-07-30T18:27:37.610Z,272945.7,JzUOBPldlg,incremental,anketa,6645cf40bc81b65c5faccf1d,participant,hcpib7dulz8qxcvi,,,,,Tko je ovo bio jasan slučaj da je zapravo pohlepna osoba??,Ovo je bio jasan slučaj da je on zapravo pohlepna osoba..,cnp,41,40,8,,,
,Answer indication,canvas.Screen,2_14_4,,,,,,skipped,,272872.89999997616,,,272862.89999997616,272873.5,2024-07-30T18:27:37.617Z,272945.7,JzUOBPldlg,incremental,anketa,6645cf40bc81b65c5faccf1d,participant,hcpib7dulz8qxcvi,,,,,Tko je ovo bio jasan slučaj da je zapravo pohlepna osoba??,Ovo je bio jasan slučaj da je on zapravo pohlepna osoba..,cnp,41,40,8,,,
,inter-stimulus,canvas.Screen,2_14_5,,,,,,response,875.4000000238302,272875,272863,272945.7,273821.10000002384,274088.10000002384,2024-07-30T18:27:38.832Z,274167.8,JzUOBPldlg,incremental,anketa,6645cf40bc81b65c5faccf1d,participant,hcpib7dulz8qxcvi,,,mousedown,,Tko je ovo bio jasan slučaj da je zapravo pohlepna osoba??,Ovo je bio jasan slučaj da je on zapravo pohlepna osoba..,cnp,41,40,8,,,
,Sequence,flow.Sequence,2_14,,,,,,completion,5962.500000023865,267775.3000000715,267776.1,267858.6,273821.10000002384,274089.39999997616,2024-07-30T18:27:38.833Z,274167.8,JzUOBPldlg,incremental,anketa,6645cf40bc81b65c5faccf1d,participant,hcpib7dulz8qxcvi,,,,,Tko je ovo bio jasan slučaj da je zapravo pohlepna osoba??,Ovo je bio jasan slučaj da je on zapravo pohlepna osoba..,cnp,41,40,8,,,
,context,canvas.Screen,2_15_0_0,,,,,,response,2579.8000000238535,274091.2000000477,274101.8,274167.8,276747.60000002384,276971.89999997616,2024-07-30T18:27:41.715Z,277044.3,JzUOBPldlg,incremental,anketa,6645cf40bc81b65c5faccf1d,participant,hcpib7dulz8qxcvi,,,click,,Što je Inna tri sata pročitala?,Inna je tri sata čitala zanimljiv članak.,nf,,,39,,,
,Timer frame,html.Frame,2_15_0,,,,,,,2805.2000000000116,274090.5,274101.8,274167.8,276973,276974.2000000477,2024-07-30T18:27:41.718Z,277044.3,JzUOBPldlg,incremental,anketa,6645cf40bc81b65c5faccf1d,participant,hcpib7dulz8qxcvi,,,,,Što je Inna tri sata pročitala?,Inna je tri sata čitala zanimljiv članak.,nf,,,39,,,
,stimulus,canvas.Screen,2_15_1_0,,,,,,response,2999.8000000238535,276975.89999997616,276978.2,277044.3,280044.10000002384,280325.39999997616,2024-07-30T18:27:45.069Z,280429.7,JzUOBPldlg,incremental,anketa,6645cf40bc81b65c5faccf1d,participant,hcpib7dulz8qxcvi,,1,click @1,,Što je Inna tri sata pročitala?,Inna je tri sata čitala zanimljiv članak.,nf,,,39,,,
,Timer frame,html.Frame,2_15_1,,,,,,,3282.2000000000116,276975.10000002384,276978.2,277044.3,280326.5,280327.10000002384,2024-07-30T18:27:45.071Z,280429.7,JzUOBPldlg,incremental,anketa,6645cf40bc81b65c5faccf1d,participant,hcpib7dulz8qxcvi,,,,,Što je Inna tri sata pročitala?,Inna je tri sata čitala zanimljiv članak.,nf,,,39,,,
,Spremanje,canvas.Screen,2_15_2,,,,,,skipped,,280327.60000002384,,,280326.5,280328.10000002384,2024-07-30T18:27:45.072Z,280429.7,JzUOBPldlg,incremental,anketa,6645cf40bc81b65c5faccf1d,participant,hcpib7dulz8qxcvi,,,,,Što je Inna tri sata pročitala?,Inna je tri sata čitala zanimljiv članak.,nf,,,39,,,
,Question form,html.Form,2_15_3,,,,,,skipped,,280328.60000002384,,,280326.5,280329.3000000715,2024-07-30T18:27:45.073Z,280429.7,JzUOBPldlg,incremental,anketa,6645cf40bc81b65c5faccf1d,participant,hcpib7dulz8qxcvi,,,,,Što je Inna tri sata pročitala?,Inna je tri sata čitala zanimljiv članak.,nf,,,39,,,
,Answer indication,canvas.Screen,2_15_4,,,,,,skipped,,280335.39999997616,,,280326.5,280336,2024-07-30T18:27:45.080Z,280429.7,JzUOBPldlg,incremental,anketa,6645cf40bc81b65c5faccf1d,participant,hcpib7dulz8qxcvi,,,,,Što je Inna tri sata pročitala?,Inna je tri sata čitala zanimljiv članak.,nf,,,39,,,
,inter-stimulus,canvas.Screen,2_15_5,,,,,,response,762.1000000715139,280336.7000000477,280330.6,280429.7,281191.8000000715,281406.7000000477,2024-07-30T18:27:46.150Z,281486.7,JzUOBPldlg,incremental,anketa,6645cf40bc81b65c5faccf1d,participant,hcpib7dulz8qxcvi,,,mousedown,,Što je Inna tri sata pročitala?,Inna je tri sata čitala zanimljiv članak.,nf,,,39,,,
,Sequence,flow.Sequence,2_15,,,,,,completion,7024.000000071537,274090.2000000477,274101.8,274167.8,281191.8000000715,281408.5,2024-07-30T18:27:46.152Z,281486.7,JzUOBPldlg,incremental,anketa,6645cf40bc81b65c5faccf1d,participant,hcpib7dulz8qxcvi,,,,,Što je Inna tri sata pročitala?,Inna je tri sata čitala zanimljiv članak.,nf,,,39,,,
,context,canvas.Screen,2_16_0_0,,,,,,response,4551.799999999988,281410.2000000477,281420.6,281486.7,286038.5,286237.5,2024-07-30T18:27:50.981Z,286325.8,JzUOBPldlg,incremental,anketa,6645cf40bc81b65c5faccf1d,participant,hcpib7dulz8qxcvi,,,click,,Od čega je djed otišao u sanatorij odmarati?,Djed je otišao u sanatorij odmarati od gužve i buke..,ai,,26,30,,,
,Timer frame,html.Frame,2_16_0,,,,,,,4751.799999999988,281409.3000000715,281420.6,281486.7,286238.5,286239.10000002384,2024-07-30T18:27:50.983Z,286325.8,JzUOBPldlg,incremental,anketa,6645cf40bc81b65c5faccf1d,participant,hcpib7dulz8qxcvi,,,,,Od čega je djed otišao u sanatorij odmarati?,Djed je otišao u sanatorij odmarati od gužve i buke..,ai,,26,30,,,
,stimulus,canvas.Screen,2_16_1_0,,,,,,response,3100.59999997617,286240.2000000477,286243.3,286325.8,289426.39999997616,289640,2024-07-30T18:27:54.383Z,289711.8,JzUOBPldlg,incremental,anketa,6645cf40bc81b65c5faccf1d,participant,hcpib7dulz8qxcvi,,7,click @7,,Od čega je djed otišao u sanatorij odmarati?,Djed je otišao u sanatorij odmarati od gužve i buke..,ai,,26,30,,,
,Timer frame,html.Frame,2_16_1,,,,,,,3315.2000000000116,286239.60000002384,286243.3,286325.8,289641,289641.5,2024-07-30T18:27:54.385Z,289711.8,JzUOBPldlg,incremental,anketa,6645cf40bc81b65c5faccf1d,participant,hcpib7dulz8qxcvi,,,,,Od čega je djed otišao u sanatorij odmarati?,Djed je otišao u sanatorij odmarati od gužve i buke..,ai,,26,30,,,
,Spremanje,canvas.Screen,2_16_2,,,,,,skipped,,289642.2000000477,,,289641,289642.8000000715,2024-07-30T18:27:54.386Z,289711.8,JzUOBPldlg,incremental,anketa,6645cf40bc81b65c5faccf1d,participant,hcpib7dulz8qxcvi,,,,,Od čega je djed otišao u sanatorij odmarati?,Djed je otišao u sanatorij odmarati od gužve i buke..,ai,,26,30,,,
,Question form,html.Form,2_16_3,,,,,,skipped,,289643.2000000477,,,289641,289643.7000000477,2024-07-30T18:27:54.387Z,289711.8,JzUOBPldlg,incremental,anketa,6645cf40bc81b65c5faccf1d,participant,hcpib7dulz8qxcvi,,,,,Od čega je djed otišao u sanatorij odmarati?,Djed je otišao u sanatorij odmarati od gužve i buke..,ai,,26,30,,,
,Answer indication,canvas.Screen,2_16_4,,,,,,skipped,,289648.5,,,289641,289648.89999997616,2024-07-30T18:27:54.392Z,289711.8,JzUOBPldlg,incremental,anketa,6645cf40bc81b65c5faccf1d,participant,hcpib7dulz8qxcvi,,,,,Od čega je djed otišao u sanatorij odmarati?,Djed je otišao u sanatorij odmarati od gužve i buke..,ai,,26,30,,,
,inter-stimulus,canvas.Screen,2_16_5,,,,,,response,719.9000000476954,289649.3000000715,289645.6,289711.8,290431.7000000477,290648.7000000477,2024-07-30T18:27:55.392Z,290735.9,JzUOBPldlg,incremental,anketa,6645cf40bc81b65c5faccf1d,participant,hcpib7dulz8qxcvi,,,mousedown,,Od čega je djed otišao u sanatorij odmarati?,Djed je otišao u sanatorij odmarati od gužve i buke..,ai,,26,30,,,
,Sequence,flow.Sequence,2_16,,,,,,completion,8945.000000047672,281409.10000002384,281420.6,281486.7,290431.7000000477,290652,2024-07-30T18:27:55.396Z,290735.9,JzUOBPldlg,incremental,anketa,6645cf40bc81b65c5faccf1d,participant,hcpib7dulz8qxcvi,,,,,Od čega je djed otišao u sanatorij odmarati?,Djed je otišao u sanatorij odmarati od gužve i buke..,ai,,26,30,,,
,context,canvas.Screen,2_17_0_0,,,,,,response,2162.999999976135,290653.3000000715,290653.3,290735.9,292898.89999997616,293108.39999997616,2024-07-30T18:27:57.852Z,293180.5,JzUOBPldlg,incremental,anketa,6645cf40bc81b65c5faccf1d,participant,hcpib7dulz8qxcvi,,,click,,Što bismo voljeli da Drago napravi bez prigovora??,Voljeli bismo da Drago opere auto bez prigovora..,si,26,22,16,,,
,Timer frame,html.Frame,2_17_0,,,,,,,2373.499999976135,290652.8000000715,290653.3,290735.9,293109.39999997616,293110.3000000715,2024-07-30T18:27:57.854Z,293180.5,JzUOBPldlg,incremental,anketa,6645cf40bc81b65c5faccf1d,participant,hcpib7dulz8qxcvi,,,,,Što bismo voljeli da Drago napravi bez prigovora??,Voljeli bismo da Drago opere auto bez prigovora..,si,26,22,16,,,
,stimulus,canvas.Screen,2_17_1_0,,,,,,response,2615.600000023842,293111.60000002384,293114.4,293180.5,295796.10000002384,296012.3000000715,2024-07-30T18:28:00.756Z,296137.7,JzUOBPldlg,incremental,anketa,6645cf40bc81b65c5faccf1d,participant,hcpib7dulz8qxcvi,,6,click @6,,Što bismo voljeli da Drago napravi bez prigovora??,Voljeli bismo da Drago opere auto bez prigovora..,si,26,22,16,,,
,Timer frame,html.Frame,2_17_1,,,,,,,2832.5,293110.89999997616,293114.4,293180.5,296013,296013.5,2024-07-30T18:28:00.757Z,296137.7,JzUOBPldlg,incremental,anketa,6645cf40bc81b65c5faccf1d,participant,hcpib7dulz8qxcvi,,,,,Što bismo voljeli da Drago napravi bez prigovora??,Voljeli bismo da Drago opere auto bez prigovora..,si,26,22,16,,,
,Spremanje,canvas.Screen,2_17_2,,,,,,skipped,,296014.10000002384,,,296013,296014.5,2024-07-30T18:28:00.758Z,296137.7,JzUOBPldlg,incremental,anketa,6645cf40bc81b65c5faccf1d,participant,hcpib7dulz8qxcvi,,,,,Što bismo voljeli da Drago napravi bez prigovora??,Voljeli bismo da Drago opere auto bez prigovora..,si,26,22,16,,,
,Question form,html.Form,2_17_3,,,,,,skipped,,296015.10000002384,,,296013,296015.7000000477,2024-07-30T18:28:00.759Z,296137.7,JzUOBPldlg,incremental,anketa,6645cf40bc81b65c5faccf1d,participant,hcpib7dulz8qxcvi,,,,,Što bismo voljeli da Drago napravi bez prigovora??,Voljeli bismo da Drago opere auto bez prigovora..,si,26,22,16,,,
,Answer indication,canvas.Screen,2_17_4,,,,,,skipped,,296020.7000000477,,,296013,296021.8000000715,2024-07-30T18:28:00.765Z,296137.7,JzUOBPldlg,incremental,anketa,6645cf40bc81b65c5faccf1d,participant,hcpib7dulz8qxcvi,,,,,Što bismo voljeli da Drago napravi bez prigovora??,Voljeli bismo da Drago opere auto bez prigovora..,si,26,22,16,,,
,inter-stimulus,canvas.Screen,2_17_5,,,,,,response,676.7999999999884,296022.39999997616,296005.666,296137.7,296814.5,297069.5,2024-07-30T18:28:01.813Z,297145.7,JzUOBPldlg,incremental,anketa,6645cf40bc81b65c5faccf1d,participant,hcpib7dulz8qxcvi,,,mousedown,,Što bismo voljeli da Drago napravi bez prigovora??,Voljeli bismo da Drago opere auto bez prigovora..,si,26,22,16,,,
,Sequence,flow.Sequence,2_17,,,,,,completion,6078.599999999977,290652.5,290653.3,290735.9,296814.5,297071.5,2024-07-30T18:28:01.815Z,297145.7,JzUOBPldlg,incremental,anketa,6645cf40bc81b65c5faccf1d,participant,hcpib7dulz8qxcvi,,,,,Što bismo voljeli da Drago napravi bez prigovora??,Voljeli bismo da Drago opere auto bez prigovora..,si,26,22,16,,,
,context,canvas.Screen,2_18_0_0,,,,,,response,1465.2999999999884,297073.10000002384,297079.5,297145.7,298611,298842,2024-07-30T18:28:03.585Z,298930.8,JzUOBPldlg,incremental,anketa,6645cf40bc81b65c5faccf1d,participant,hcpib7dulz8qxcvi,,,click,,U sutra ne samo svatko jedan može gledati.,Ne može svatko gledati u sutra.,nf,,,45,,,
,Timer frame,html.Frame,2_18_0,,,,,,,1697.100000071514,297072.39999997616,297079.5,297145.7,298842.8000000715,298843.3000000715,2024-07-30T18:28:03.587Z,298930.8,JzUOBPldlg,incremental,anketa,6645cf40bc81b65c5faccf1d,participant,hcpib7dulz8qxcvi,,,,,U sutra ne samo svatko jedan može gledati.,Ne može svatko gledati u sutra.,nf,,,45,,,
,stimulus,canvas.Screen,2_18_1_0,,,,,,response,3083.8000000238535,298844.60000002384,298848.1,298930.8,302014.60000002384,302246.2000000477,2024-07-30T18:28:06.990Z,302333,JzUOBPldlg,incremental,anketa,6645cf40bc81b65c5faccf1d,participant,hcpib7dulz8qxcvi,,1,click @1,,U sutra ne samo svatko jedan može gledati.,Ne može svatko gledati u sutra.,nf,,,45,,,
,Timer frame,html.Frame,2_18_1,,,,,,,3316.3000000238535,298843.89999997616,298848.1,298930.8,302247.10000002384,302247.60000002384,2024-07-30T18:28:06.991Z,302333,JzUOBPldlg,incremental,anketa,6645cf40bc81b65c5faccf1d,participant,hcpib7dulz8qxcvi,,,,,U sutra ne samo svatko jedan može gledati.,Ne može svatko gledati u sutra.,nf,,,45,,,
,Spremanje,canvas.Screen,2_18_2,,,,,,skipped,,302248.10000002384,,,302247.10000002384,302248.5,2024-07-30T18:28:06.992Z,302333,JzUOBPldlg,incremental,anketa,6645cf40bc81b65c5faccf1d,participant,hcpib7dulz8qxcvi,,,,,U sutra ne samo svatko jedan može gledati.,Ne može svatko gledati u sutra.,nf,,,45,,,
,Question form,html.Form,2_18_3,,,,,,skipped,,302248.89999997616,,,302247.10000002384,302249.3000000715,2024-07-30T18:28:06.993Z,302333,JzUOBPldlg,incremental,anketa,6645cf40bc81b65c5faccf1d,participant,hcpib7dulz8qxcvi,,,,,U sutra ne samo svatko jedan može gledati.,Ne može svatko gledati u sutra.,nf,,,45,,,
,Answer indication,canvas.Screen,2_18_4,,,,,,skipped,,302255.8000000715,,,302247.10000002384,302256.39999997616,2024-07-30T18:28:07.000Z,302333,JzUOBPldlg,incremental,anketa,6645cf40bc81b65c5faccf1d,participant,hcpib7dulz8qxcvi,,,,,U sutra ne samo svatko jedan može gledati.,Ne može svatko gledati u sutra.,nf,,,45,,,
,inter-stimulus,canvas.Screen,2_18_5,,,,,,response,751.5,302257,302233.966,302333,303084.5,303304.7000000477,2024-07-30T18:28:08.048Z,303390.6,JzUOBPldlg,incremental,anketa,6645cf40bc81b65c5faccf1d,participant,hcpib7dulz8qxcvi,,,mousedown,,U sutra ne samo svatko jedan može gledati.,Ne može svatko gledati u sutra.,nf,,,45,,,
,Sequence,flow.Sequence,2_18,,,,,,completion,5938.799999999988,297072.2000000477,297079.5,297145.7,303084.5,303306.2000000477,2024-07-30T18:28:08.050Z,303390.6,JzUOBPldlg,incremental,anketa,6645cf40bc81b65c5faccf1d,participant,hcpib7dulz8qxcvi,,,,,U sutra ne samo svatko jedan može gledati.,Ne može svatko gledati u sutra.,nf,,,45,,,
,context,canvas.Screen,2_19_0_0,,,,,,response,2000.0000000238651,303307.60000002384,303308,303390.6,305390.60000002384,305664.60000002384,2024-07-30T18:28:10.408Z,305741.6,JzUOBPldlg,incremental,anketa,6645cf40bc81b65c5faccf1d,participant,hcpib7dulz8qxcvi,,,click,,Što Miloš je opljačkao banku da kupi?,Miloš je opljačkao banku da kupi kuću.,ai,,,20,,,
,Timer frame,html.Frame,2_19_0,,,,,,,2275.4000000000233,303306.89999997616,303308,303390.6,305666,305667,2024-07-30T18:28:10.410Z,305741.6,JzUOBPldlg,incremental,anketa,6645cf40bc81b65c5faccf1d,participant,hcpib7dulz8qxcvi,,,,,Što Miloš je opljačkao banku da kupi?,Miloš je opljačkao banku da kupi kuću.,ai,,,20,,,
,stimulus,canvas.Screen,2_19_1_0,,,,,,response,4396.500000023865,305668.5,305675.4,305741.6,310138.10000002384,310358.89999997616,2024-07-30T18:28:15.102Z,310465.7,JzUOBPldlg,incremental,anketa,6645cf40bc81b65c5faccf1d,participant,hcpib7dulz8qxcvi,,4,click @4,,Što Miloš je opljačkao banku da kupi?,Miloš je opljačkao banku da kupi kuću.,ai,,,20,,,
,Timer frame,html.Frame,2_19_1,,,,,,,4617.900000000023,305667.8000000715,305675.4,305741.6,310359.5,310360,2024-07-30T18:28:15.104Z,310465.7,JzUOBPldlg,incremental,anketa,6645cf40bc81b65c5faccf1d,participant,hcpib7dulz8qxcvi,,,,,Što Miloš je opljačkao banku da kupi?,Miloš je opljačkao banku da kupi kuću.,ai,,,20,,,
,Spremanje,canvas.Screen,2_19_2,,,,,,skipped,,310360.39999997616,,,310359.5,310360.89999997616,2024-07-30T18:28:15.104Z,310465.7,JzUOBPldlg,incremental,anketa,6645cf40bc81b65c5faccf1d,participant,hcpib7dulz8qxcvi,,,,,Što Miloš je opljačkao banku da kupi?,Miloš je opljačkao banku da kupi kuću.,ai,,,20,,,
,Question form,html.Form,2_19_3,,,,,,skipped,,310361.39999997616,,,310359.5,310362,2024-07-30T18:28:15.106Z,310465.7,JzUOBPldlg,incremental,anketa,6645cf40bc81b65c5faccf1d,participant,hcpib7dulz8qxcvi,,,,,Što Miloš je opljačkao banku da kupi?,Miloš je opljačkao banku da kupi kuću.,ai,,,20,,,
,Answer indication,canvas.Screen,2_19_4,,,,,,skipped,,310366.60000002384,,,310359.5,310367.2000000477,2024-07-30T18:28:15.111Z,310465.7,JzUOBPldlg,incremental,anketa,6645cf40bc81b65c5faccf1d,participant,hcpib7dulz8qxcvi,,,,,Što Miloš je opljačkao banku da kupi?,Miloš je opljačkao banku da kupi kuću.,ai,,,20,,,
,inter-stimulus,canvas.Screen,2_19_5,,,,,,response,765.7999999999884,310367.8000000715,310366.4,310465.7,311231.5,311462.2000000477,2024-07-30T18:28:16.206Z,311539.9,JzUOBPldlg,incremental,anketa,6645cf40bc81b65c5faccf1d,participant,hcpib7dulz8qxcvi,,,mousedown,,Što Miloš je opljačkao banku da kupi?,Miloš je opljačkao banku da kupi kuću.,ai,,,20,,,
,Sequence,flow.Sequence,2_19,,,,,,completion,7840.900000000023,303306.7000000477,303308,303390.6,311231.5,311463.60000002384,2024-07-30T18:28:16.207Z,311539.9,JzUOBPldlg,incremental,anketa,6645cf40bc81b65c5faccf1d,participant,hcpib7dulz8qxcvi,,,,,Što Miloš je opljačkao banku da kupi?,Miloš je opljačkao banku da kupi kuću.,ai,,,20,,,
,context,canvas.Screen,2_20_0_0,,,,,,response,2160.5999999999767,311465,311473.8,311539.9,313700.5,313921.5,2024-07-30T18:28:18.665Z,314018.5,JzUOBPldlg,incremental,anketa,6645cf40bc81b65c5faccf1d,participant,hcpib7dulz8qxcvi,,,click,,Što želiš da pronaći nije bilo teško?,Pronaći apoteku nije bilo teško.,si,,,14,,,2305
,Timer frame,html.Frame,2_20_0,,,,,,,2382.3000000476604,311464.39999997616,311473.8,311539.9,313922.2000000477,313922.7000000477,2024-07-30T18:28:18.666Z,314018.5,JzUOBPldlg,incremental,anketa,6645cf40bc81b65c5faccf1d,participant,hcpib7dulz8qxcvi,,,,,Što želiš da pronaći nije bilo teško?,Pronaći apoteku nije bilo teško.,si,,,14,,,2305
,stimulus,canvas.Screen,2_20_1_0,,,,,,response,2242.600000023842,313923.8000000715,313919.4,314018.5,316261.10000002384,316479.10000002384,2024-07-30T18:28:21.223Z,316561.9,JzUOBPldlg,incremental,anketa,6645cf40bc81b65c5faccf1d,participant,hcpib7dulz8qxcvi,,1,click @1,,Što želiš da pronaći nije bilo teško?,Pronaći apoteku nije bilo teško.,si,,,14,,,2305
,Timer frame,html.Frame,2_20_1,,,,,,,2461.7000000476837,313923.10000002384,313919.4,314018.5,316480.2000000477,316480.89999997616,2024-07-30T18:28:21.224Z,316561.9,JzUOBPldlg,incremental,anketa,6645cf40bc81b65c5faccf1d,participant,hcpib7dulz8qxcvi,,,,,Što želiš da pronaći nije bilo teško?,Pronaći apoteku nije bilo teško.,si,,,14,,,2305
,Spremanje,canvas.Screen,2_20_2,,,,,,skipped,,316481.5,,,316480.2000000477,316482.5,2024-07-30T18:28:21.226Z,316561.9,JzUOBPldlg,incremental,anketa,6645cf40bc81b65c5faccf1d,participant,hcpib7dulz8qxcvi,,,,,Što želiš da pronaći nije bilo teško?,Pronaći apoteku nije bilo teško.,si,,,14,,,2305
,Question form,html.Form,2_20_3,,,,,,skipped,,316483,,,316480.2000000477,316483.7000000477,2024-07-30T18:28:21.227Z,316561.9,JzUOBPldlg,incremental,anketa,6645cf40bc81b65c5faccf1d,participant,hcpib7dulz8qxcvi,,,,,Što želiš da pronaći nije bilo teško?,Pronaći apoteku nije bilo teško.,si,,,14,,,2305
,Answer indication,canvas.Screen,2_20_4,,,,,,skipped,,316489.60000002384,,,316480.2000000477,316490,2024-07-30T18:28:21.234Z,316561.9,JzUOBPldlg,incremental,anketa,6645cf40bc81b65c5faccf1d,participant,hcpib7dulz8qxcvi,,,,,Što želiš da pronaći nije bilo teško?,Pronaći apoteku nije bilo teško.,si,,,14,,,2305
,inter-stimulus,canvas.Screen,2_20_5,,,,,,response,1248.7000000238186,316490.5,316479.3,316561.9,317810.60000002384,318061.39999997616,2024-07-30T18:28:22.805Z,318130.8,JzUOBPldlg,incremental,anketa,6645cf40bc81b65c5faccf1d,participant,hcpib7dulz8qxcvi,,,mousedown,,Što želiš da pronaći nije bilo teško?,Pronaći apoteku nije bilo teško.,si,,,14,,,2305
,Sequence,flow.Sequence,2_20,,,,,,completion,6270.700000023819,311464.10000002384,311473.8,311539.9,317810.60000002384,318062.3000000715,2024-07-30T18:28:22.806Z,318130.8,JzUOBPldlg,incremental,anketa,6645cf40bc81b65c5faccf1d,participant,hcpib7dulz8qxcvi,,,,,Što želiš da pronaći nije bilo teško?,Pronaći apoteku nije bilo teško.,si,,,14,,,2305
,context,canvas.Screen,2_21_0_0,,,,,,response,1805.8000000238535,318063.10000002384,318064.8,318130.8,319936.60000002384,320164.39999997616,2024-07-30T18:28:24.908Z,320245.7,JzUOBPldlg,incremental,anketa,6645cf40bc81b65c5faccf1d,participant,hcpib7dulz8qxcvi,,,click,,Odakle si pješke ići prema Zadru?,Ideš pješke od Splita prema Zadru.,nf,,,44,,,
,Timer frame,html.Frame,2_21_0,,,,,,,2035.5000000715372,318062.7000000477,318064.8,318130.8,320166.3000000715,320167.3000000715,2024-07-30T18:28:24.911Z,320245.7,JzUOBPldlg,incremental,anketa,6645cf40bc81b65c5faccf1d,participant,hcpib7dulz8qxcvi,,,,,Odakle si pješke ići prema Zadru?,Ideš pješke od Splita prema Zadru.,nf,,,44,,,
,stimulus,canvas.Screen,2_21_1_0,,,,,,response,2501.40000002383,320168.7000000477,320146.766,320245.7,322747.10000002384,322988.10000002384,2024-07-30T18:28:27.732Z,323086.9,JzUOBPldlg,incremental,anketa,6645cf40bc81b65c5faccf1d,participant,hcpib7dulz8qxcvi,,1,click @1,,Odakle si pješke ići prema Zadru?,Ideš pješke od Splita prema Zadru.,nf,,,44,,,
,Timer frame,html.Frame,2_21_1,,,,,,,2744.600000071514,320168.10000002384,320146.766,320245.7,322990.3000000715,322990.89999997616,2024-07-30T18:28:27.734Z,323086.9,JzUOBPldlg,incremental,anketa,6645cf40bc81b65c5faccf1d,participant,hcpib7dulz8qxcvi,,,,,Odakle si pješke ići prema Zadru?,Ideš pješke od Splita prema Zadru.,nf,,,44,,,
,Spremanje,canvas.Screen,2_21_2,,,,,,skipped,,322991.5,,,322990.3000000715,322991.89999997616,2024-07-30T18:28:27.735Z,323086.9,JzUOBPldlg,incremental,anketa,6645cf40bc81b65c5faccf1d,participant,hcpib7dulz8qxcvi,,,,,Odakle si pješke ići prema Zadru?,Ideš pješke od Splita prema Zadru.,nf,,,44,,,
,Question form,html.Form,2_21_3,,,,,,skipped,,322992.3000000715,,,322990.3000000715,322992.89999997616,2024-07-30T18:28:27.736Z,323086.9,JzUOBPldlg,incremental,anketa,6645cf40bc81b65c5faccf1d,participant,hcpib7dulz8qxcvi,,,,,Odakle si pješke ići prema Zadru?,Ideš pješke od Splita prema Zadru.,nf,,,44,,,
,Answer indication,canvas.Screen,2_21_4,,,,,,skipped,,322998.2000000477,,,322990.3000000715,322998.8000000715,2024-07-30T18:28:27.742Z,323086.9,JzUOBPldlg,incremental,anketa,6645cf40bc81b65c5faccf1d,participant,hcpib7dulz8qxcvi,,,,,Odakle si pješke ići prema Zadru?,Ideš pješke od Splita prema Zadru.,nf,,,44,,,
,inter-stimulus,canvas.Screen,2_21_5,,,,,,response,965.3000000476604,322999.39999997616,322971.466,323086.9,324052.2000000477,324272.10000002384,2024-07-30T18:28:29.016Z,324342,JzUOBPldlg,incremental,anketa,6645cf40bc81b65c5faccf1d,participant,hcpib7dulz8qxcvi,,,mousedown,,Odakle si pješke ići prema Zadru?,Ideš pješke od Splita prema Zadru.,nf,,,44,,,
,Sequence,flow.Sequence,2_21,,,,,,completion,5921.400000047695,318062.5,318064.8,318130.8,324052.2000000477,324275.3000000715,2024-07-30T18:28:29.019Z,324342,JzUOBPldlg,incremental,anketa,6645cf40bc81b65c5faccf1d,participant,hcpib7dulz8qxcvi,,,,,Odakle si pješke ići prema Zadru?,Ideš pješke od Splita prema Zadru.,nf,,,44,,,
,context,canvas.Screen,2_22_0_0,,,,,,response,1863,324277.3000000715,324276,324342,326205,326417.7000000477,2024-07-30T18:28:31.161Z,326522.1,JzUOBPldlg,incremental,anketa,6645cf40bc81b65c5faccf1d,participant,hcpib7dulz8qxcvi,,,click,,Prije čega dobro je da smo stigli?,Dobro je da smo stigli prije polaska vlaka.,si,,,15,,,
,Timer frame,html.Frame,2_22_0,,,,,,,2076.7000000476837,324276.5,324276,324342,326418.7000000477,326419.3000000715,2024-07-30T18:28:31.163Z,326522.1,JzUOBPldlg,incremental,anketa,6645cf40bc81b65c5faccf1d,participant,hcpib7dulz8qxcvi,,,,,Prije čega dobro je da smo stigli?,Dobro je da smo stigli prije polaska vlaka.,si,,,15,,,
,stimulus,canvas.Screen,2_22_1_0,,,,,,response,3477.100000047707,326420.60000002384,326423.1,326522.1,329999.2000000477,330284,2024-07-30T18:28:35.028Z,330371.3,JzUOBPldlg,incremental,anketa,6645cf40bc81b65c5faccf1d,participant,hcpib7dulz8qxcvi,,5,click @5,,Prije čega dobro je da smo stigli?,Dobro je da smo stigli prije polaska vlaka.,si,,,15,,,
,Timer frame,html.Frame,2_22_1,,,,,,,3763.100000047707,326419.8000000715,326423.1,326522.1,330285.2000000477,330286.2000000477,2024-07-30T18:28:35.030Z,330371.3,JzUOBPldlg,incremental,anketa,6645cf40bc81b65c5faccf1d,participant,hcpib7dulz8qxcvi,,,,,Prije čega dobro je da smo stigli?,Dobro je da smo stigli prije polaska vlaka.,si,,,15,,,
,Spremanje,canvas.Screen,2_22_2,,,,,,skipped,,330287.3000000715,,,330285.2000000477,330288,2024-07-30T18:28:35.031Z,330371.3,JzUOBPldlg,incremental,anketa,6645cf40bc81b65c5faccf1d,participant,hcpib7dulz8qxcvi,,,,,Prije čega dobro je da smo stigli?,Dobro je da smo stigli prije polaska vlaka.,si,,,15,,,
,Question form,html.Form,2_22_3,,,,,,skipped,,330288.60000002384,,,330285.2000000477,330289.5,2024-07-30T18:28:35.033Z,330371.3,JzUOBPldlg,incremental,anketa,6645cf40bc81b65c5faccf1d,participant,hcpib7dulz8qxcvi,,,,,Prije čega dobro je da smo stigli?,Dobro je da smo stigli prije polaska vlaka.,si,,,15,,,
,Answer indication,canvas.Screen,2_22_4,,,,,,skipped,,330296.89999997616,,,330285.2000000477,330297.8000000715,2024-07-30T18:28:35.041Z,330371.3,JzUOBPldlg,incremental,anketa,6645cf40bc81b65c5faccf1d,participant,hcpib7dulz8qxcvi,,,,,Prije čega dobro je da smo stigli?,Dobro je da smo stigli prije polaska vlaka.,si,,,15,,,
,inter-stimulus,canvas.Screen,2_22_5,,,,,,response,398.90000004769536,330298.5,330288.7,330371.3,330770.2000000477,330949.3000000715,2024-07-30T18:28:35.693Z,331032.1,JzUOBPldlg,incremental,anketa,6645cf40bc81b65c5faccf1d,participant,hcpib7dulz8qxcvi,,,mousedown,,Prije čega dobro je da smo stigli?,Dobro je da smo stigli prije polaska vlaka.,si,,,15,,,
,Sequence,flow.Sequence,2_22,,,,,,completion,6428.200000047684,324276.3000000715,324276,324342,330770.2000000477,330950.60000002384,2024-07-30T18:28:35.694Z,331032.1,JzUOBPldlg,incremental,anketa,6645cf40bc81b65c5faccf1d,participant,hcpib7dulz8qxcvi,,,,,Prije čega dobro je da smo stigli?,Dobro je da smo stigli prije polaska vlaka.,si,,,15,,,
,context,canvas.Screen,2_23_0_0,,,,,,response,6767.299999976181,330952,330966,331032.1,337799.39999997616,338013,2024-07-30T18:28:42.757Z,338085.6,JzUOBPldlg,incremental,anketa,6645cf40bc81b65c5faccf1d,participant,hcpib7dulz8qxcvi,,,click,,Nešto se mu otac za punoljetnost poklonio.,Otac mu je za punoljetnost poklonio crveni Ferrari.,nf,,,42,,,
,Timer frame,html.Frame,2_23_0,,,,,,,6982.299999976181,330951.5,330966,331032.1,338014.39999997616,338015.10000002384,2024-07-30T18:28:42.759Z,338085.6,JzUOBPldlg,incremental,anketa,6645cf40bc81b65c5faccf1d,participant,hcpib7dulz8qxcvi,,,,,Nešto se mu otac za punoljetnost poklonio.,Otac mu je za punoljetnost poklonio crveni Ferrari.,nf,,,42,,,
,stimulus,canvas.Screen,2_23_1_0,,,,,,response,9972.000000023865,338016.3000000715,338019.5,338085.6,348057.60000002384,348245.2000000477,2024-07-30T18:28:52.989Z,348379.1,JzUOBPldlg,incremental,anketa,6645cf40bc81b65c5faccf1d,participant,hcpib7dulz8qxcvi,,4,click @4,,Nešto se mu otac za punoljetnost poklonio.,Otac mu je za punoljetnost poklonio crveni Ferrari.,nf,,,42,,,
,Timer frame,html.Frame,2_23_1,,,,,,,10160.500000023865,338015.60000002384,338019.5,338085.6,348246.10000002384,348249.8000000715,2024-07-30T18:28:52.993Z,348379.1,JzUOBPldlg,incremental,anketa,6645cf40bc81b65c5faccf1d,participant,hcpib7dulz8qxcvi,,,,,Nešto se mu otac za punoljetnost poklonio.,Otac mu je za punoljetnost poklonio crveni Ferrari.,nf,,,42,,,
,Spremanje,canvas.Screen,2_23_2,,,,,,skipped,,348250.60000002384,,,348246.10000002384,348251.10000002384,2024-07-30T18:28:52.995Z,348379.1,JzUOBPldlg,incremental,anketa,6645cf40bc81b65c5faccf1d,participant,hcpib7dulz8qxcvi,,,,,Nešto se mu otac za punoljetnost poklonio.,Otac mu je za punoljetnost poklonio crveni Ferrari.,nf,,,42,,,
,Question form,html.Form,2_23_3,,,,,,skipped,,348251.60000002384,,,348246.10000002384,348252.2000000477,2024-07-30T18:28:52.996Z,348379.1,JzUOBPldlg,incremental,anketa,6645cf40bc81b65c5faccf1d,participant,hcpib7dulz8qxcvi,,,,,Nešto se mu otac za punoljetnost poklonio.,Otac mu je za punoljetnost poklonio crveni Ferrari.,nf,,,42,,,
,Answer indication,canvas.Screen,2_23_4,,,,,,skipped,,348256.89999997616,,,348246.10000002384,348257.8000000715,2024-07-30T18:28:53.001Z,348379.1,JzUOBPldlg,incremental,anketa,6645cf40bc81b65c5faccf1d,participant,hcpib7dulz8qxcvi,,,,,Nešto se mu otac za punoljetnost poklonio.,Otac mu je za punoljetnost poklonio crveni Ferrari.,nf,,,42,,,
,inter-stimulus,canvas.Screen,2_23_5,,,,,,response,3224.200000071549,348258.5,348230.832,348379.1,351603.3000000715,351818.39999997616,2024-07-30T18:28:56.562Z,351897.3,JzUOBPldlg,incremental,anketa,6645cf40bc81b65c5faccf1d,participant,hcpib7dulz8qxcvi,,,mousedown,,Nešto se mu otac za punoljetnost poklonio.,Otac mu je za punoljetnost poklonio crveni Ferrari.,nf,,,42,,,
,Sequence,flow.Sequence,2_23,,,,,,completion,20571.20000007155,330951.2000000477,330966,331032.1,351603.3000000715,351819.89999997616,2024-07-30T18:28:56.563Z,351897.3,JzUOBPldlg,incremental,anketa,6645cf40bc81b65c5faccf1d,participant,hcpib7dulz8qxcvi,,,,,Nešto se mu otac za punoljetnost poklonio.,Otac mu je za punoljetnost poklonio crveni Ferrari.,nf,,,42,,,
,context,canvas.Screen,2_24_0_0,,,,,,response,3493.500000071537,351821.3000000715,351831.2,351897.3,355390.8000000715,355621.10000002384,2024-07-30T18:29:00.365Z,355696.5,JzUOBPldlg,incremental,anketa,6645cf40bc81b65c5faccf1d,participant,hcpib7dulz8qxcvi,,,click,,Za koliko novca nevjerojatno je da je Goran prodao svoj stan??,Ono da je Goran prodao svoj stan za toliki novac nevjerojatno je..,si,31,32,18,,,
,Timer frame,html.Frame,2_24_0,,,,,,,3724.4000000476954,351820.8000000715,351831.2,351897.3,355621.7000000477,355622.10000002384,2024-07-30T18:29:00.366Z,355696.5,JzUOBPldlg,incremental,anketa,6645cf40bc81b65c5faccf1d,participant,hcpib7dulz8qxcvi,,,,,Za koliko novca nevjerojatno je da je Goran prodao svoj stan??,Ono da je Goran prodao svoj stan za toliki novac nevjerojatno je..,si,31,32,18,,,
,stimulus,canvas.Screen,2_24_1_0,,,,,,response,3364.600000023842,355622.89999997616,355614.066,355696.5,359061.10000002384,359260,2024-07-30T18:29:04.004Z,359314.3,JzUOBPldlg,incremental,anketa,6645cf40bc81b65c5faccf1d,participant,hcpib7dulz8qxcvi,,3,click @3,,Za koliko novca nevjerojatno je da je Goran prodao svoj stan??,Ono da je Goran prodao svoj stan za toliki novac nevjerojatno je..,si,31,32,18,,,
,Timer frame,html.Frame,2_24_1,,,,,,,3564,355622.39999997616,355614.066,355696.5,359260.5,359260.89999997616,2024-07-30T18:29:04.004Z,359314.3,JzUOBPldlg,incremental,anketa,6645cf40bc81b65c5faccf1d,participant,hcpib7dulz8qxcvi,,,,,Za koliko novca nevjerojatno je da je Goran prodao svoj stan??,Ono da je Goran prodao svoj stan za toliki novac nevjerojatno je..,si,31,32,18,,,
,Spremanje,canvas.Screen,2_24_2,,,,,,skipped,,359261.10000002384,,,359260.5,359261.39999997616,2024-07-30T18:29:04.005Z,359314.3,JzUOBPldlg,incremental,anketa,6645cf40bc81b65c5faccf1d,participant,hcpib7dulz8qxcvi,,,,,Za koliko novca nevjerojatno je da je Goran prodao svoj stan??,Ono da je Goran prodao svoj stan za toliki novac nevjerojatno je..,si,31,32,18,,,
,Question form,html.Form,2_24_3,,,,,,skipped,,359261.60000002384,,,359260.5,359261.89999997616,2024-07-30T18:29:04.005Z,359314.3,JzUOBPldlg,incremental,anketa,6645cf40bc81b65c5faccf1d,participant,hcpib7dulz8qxcvi,,,,,Za koliko novca nevjerojatno je da je Goran prodao svoj stan??,Ono da je Goran prodao svoj stan za toliki novac nevjerojatno je..,si,31,32,18,,,
,Answer indication,canvas.Screen,2_24_4,,,,,,skipped,,359264.39999997616,,,359260.5,359264.60000002384,2024-07-30T18:29:04.008Z,359314.3,JzUOBPldlg,incremental,anketa,6645cf40bc81b65c5faccf1d,participant,hcpib7dulz8qxcvi,,,,,Za koliko novca nevjerojatno je da je Goran prodao svoj stan??,Ono da je Goran prodao svoj stan za toliki novac nevjerojatno je..,si,31,32,18,,,
,inter-stimulus,canvas.Screen,2_24_5,,,,,,response,876.0000000715372,359264.89999997616,359264.7,359314.3,360190.3000000715,360407.10000002384,2024-07-30T18:29:05.151Z,360503.5,JzUOBPldlg,incremental,anketa,6645cf40bc81b65c5faccf1d,participant,hcpib7dulz8qxcvi,,,mousedown,,Za koliko novca nevjerojatno je da je Goran prodao svoj stan??,Ono da je Goran prodao svoj stan za toliki novac nevjerojatno je..,si,31,32,18,,,
,Sequence,flow.Sequence,2_24,,,,,,completion,8293.000000071537,351820.39999997616,351831.2,351897.3,360190.3000000715,360408.5,2024-07-30T18:29:05.152Z,360503.5,JzUOBPldlg,incremental,anketa,6645cf40bc81b65c5faccf1d,participant,hcpib7dulz8qxcvi,,,,,Za koliko novca nevjerojatno je da je Goran prodao svoj stan??,Ono da je Goran prodao svoj stan za toliki novac nevjerojatno je..,si,31,32,18,,,
,context,canvas.Screen,2_25_0_0,,,,,,response,2163,360411.89999997616,360420.9,360503.5,362666.5,362890.7000000477,2024-07-30T18:29:07.634Z,362947.9,JzUOBPldlg,incremental,anketa,6645cf40bc81b65c5faccf1d,participant,hcpib7dulz8qxcvi,,,click,,Tko se zaljubio u djevojku kad je bio dijete?,"Kad smo bili djeca, moj prijatelj i ja smo se zaljubili u istu djevojku..",gf,,33,52,,,
,Timer frame,html.Frame,2_25_0,,,,,,,2388,360409.3000000715,360420.9,360503.5,362891.5,362892.10000002384,2024-07-30T18:29:07.636Z,362947.9,JzUOBPldlg,incremental,anketa,6645cf40bc81b65c5faccf1d,participant,hcpib7dulz8qxcvi,,,,,Tko se zaljubio u djevojku kad je bio dijete?,"Kad smo bili djeca, moj prijatelj i ja smo se zaljubili u istu djevojku..",gf,,33,52,,,
,stimulus,canvas.Screen,2_25_1_0,,,,,,response,4076.9000000715023,362893.10000002384,362898.4,362947.9,367024.8000000715,367224.39999997616,2024-07-30T18:29:11.968Z,367343.6,JzUOBPldlg,incremental,anketa,6645cf40bc81b65c5faccf1d,participant,hcpib7dulz8qxcvi,,5,click @5,,Tko se zaljubio u djevojku kad je bio dijete?,"Kad smo bili djeca, moj prijatelj i ja smo se zaljubili u istu djevojku..",gf,,33,52,,,
,Timer frame,html.Frame,2_25_1,,,,,,,4277.200000023819,362892.5,362898.4,362947.9,367225.10000002384,367225.8000000715,2024-07-30T18:29:11.969Z,367343.6,JzUOBPldlg,incremental,anketa,6645cf40bc81b65c5faccf1d,participant,hcpib7dulz8qxcvi,,,,,Tko se zaljubio u djevojku kad je bio dijete?,"Kad smo bili djeca, moj prijatelj i ja smo se zaljubili u istu djevojku..",gf,,33,52,,,
,Spremanje,canvas.Screen,2_25_2,,,,,,skipped,,367226.39999997616,,,367225.10000002384,367226.89999997616,2024-07-30T18:29:11.970Z,367343.6,JzUOBPldlg,incremental,anketa,6645cf40bc81b65c5faccf1d,participant,hcpib7dulz8qxcvi,,,,,Tko se zaljubio u djevojku kad je bio dijete?,"Kad smo bili djeca, moj prijatelj i ja smo se zaljubili u istu djevojku..",gf,,33,52,,,
,Question form,html.Form,2_25_3,,,,,,skipped,,367227.3000000715,,,367225.10000002384,367227.89999997616,2024-07-30T18:29:11.971Z,367343.6,JzUOBPldlg,incremental,anketa,6645cf40bc81b65c5faccf1d,participant,hcpib7dulz8qxcvi,,,,,Tko se zaljubio u djevojku kad je bio dijete?,"Kad smo bili djeca, moj prijatelj i ja smo se zaljubili u istu djevojku..",gf,,33,52,,,
,Answer indication,canvas.Screen,2_25_4,,,,,,skipped,,367232.7000000477,,,367225.10000002384,367233.5,2024-07-30T18:29:11.977Z,367343.6,JzUOBPldlg,incremental,anketa,6645cf40bc81b65c5faccf1d,participant,hcpib7dulz8qxcvi,,,,,Tko se zaljubio u djevojku kad je bio dijete?,"Kad smo bili djeca, moj prijatelj i ja smo se zaljubili u istu djevojku..",gf,,33,52,,,
,inter-stimulus,canvas.Screen,2_25_5,,,,,,response,334.600000047707,367234.2000000477,367227.9,367343.6,367678.2000000477,367855.89999997616,2024-07-30T18:29:12.599Z,367938.2,JzUOBPldlg,incremental,anketa,6645cf40bc81b65c5faccf1d,participant,hcpib7dulz8qxcvi,,,mousedown,,Tko se zaljubio u djevojku kad je bio dijete?,"Kad smo bili djeca, moj prijatelj i ja smo se zaljubili u istu djevojku..",gf,,33,52,,,
,Sequence,flow.Sequence,2_25,,,,,,completion,7174.700000047684,360409.10000002384,360420.9,360503.5,367678.2000000477,367858.3000000715,2024-07-30T18:29:12.602Z,367938.2,JzUOBPldlg,incremental,anketa,6645cf40bc81b65c5faccf1d,participant,hcpib7dulz8qxcvi,,,,,Tko se zaljubio u djevojku kad je bio dijete?,"Kad smo bili djeca, moj prijatelj i ja smo se zaljubili u istu djevojku..",gf,,33,52,,,
,context,canvas.Screen,2_26_0_0,,,,,,response,2397.000000047672,367859.8000000715,367855.7,367938.2,370335.2000000477,370557.7000000477,2024-07-30T18:29:15.301Z,370666.9,JzUOBPldlg,incremental,anketa,6645cf40bc81b65c5faccf1d,participant,hcpib7dulz8qxcvi,,,click,,Kakav sam vidio barku u oceanu?,Vidio sam bijelu barku u oceanu.,nf,,,41,,,2305
,Timer frame,html.Frame,2_26_0,,,,,,,2620.2999999999884,367859.10000002384,367855.7,367938.2,370558.5,370559,2024-07-30T18:29:15.302Z,370666.9,JzUOBPldlg,incremental,anketa,6645cf40bc81b65c5faccf1d,participant,hcpib7dulz8qxcvi,,,,,Kakav sam vidio barku u oceanu?,Vidio sam bijelu barku u oceanu.,nf,,,41,,,2305
,stimulus,canvas.Screen,2_26_1_0,,,,,,response,3667.9000000715023,370560,370551.1,370666.9,374334.8000000715,374538.89999997616,2024-07-30T18:29:19.282Z,374647.3,JzUOBPldlg,incremental,anketa,6645cf40bc81b65c5faccf1d,participant,hcpib7dulz8qxcvi,,1,click @1,,Kakav sam vidio barku u oceanu?,Vidio sam bijelu barku u oceanu.,nf,,,41,,,2305
,Timer frame,html.Frame,2_26_1,,,,,,,3872.999999976135,370559.39999997616,370551.1,370666.9,374539.89999997616,374540.7000000477,2024-07-30T18:29:19.284Z,374647.3,JzUOBPldlg,incremental,anketa,6645cf40bc81b65c5faccf1d,participant,hcpib7dulz8qxcvi,,,,,Kakav sam vidio barku u oceanu?,Vidio sam bijelu barku u oceanu.,nf,,,41,,,2305
,Spremanje,canvas.Screen,2_26_2,,,,,,skipped,,374541.5,,,374539.89999997616,374542.2000000477,2024-07-30T18:29:19.286Z,374647.3,JzUOBPldlg,incremental,anketa,6645cf40bc81b65c5faccf1d,participant,hcpib7dulz8qxcvi,,,,,Kakav sam vidio barku u oceanu?,Vidio sam bijelu barku u oceanu.,nf,,,41,,,2305
,Question form,html.Form,2_26_3,,,,,,skipped,,374542.7000000477,,,374539.89999997616,374543.39999997616,2024-07-30T18:29:19.287Z,374647.3,JzUOBPldlg,incremental,anketa,6645cf40bc81b65c5faccf1d,participant,hcpib7dulz8qxcvi,,,,,Kakav sam vidio barku u oceanu?,Vidio sam bijelu barku u oceanu.,nf,,,41,,,2305
,Answer indication,canvas.Screen,2_26_4,,,,,,skipped,,374587.7000000477,,,374539.89999997616,374588.3000000715,2024-07-30T18:29:19.332Z,374647.3,JzUOBPldlg,incremental,anketa,6645cf40bc81b65c5faccf1d,participant,hcpib7dulz8qxcvi,,,,,Kakav sam vidio barku u oceanu?,Vidio sam bijelu barku u oceanu.,nf,,,41,,,2305
,inter-stimulus,canvas.Screen,2_26_5,,,,,,response,801.3000000238535,374588.7000000477,374548.3,374647.3,375448.60000002384,375708.5,2024-07-30T18:29:20.452Z,375803,JzUOBPldlg,incremental,anketa,6645cf40bc81b65c5faccf1d,participant,hcpib7dulz8qxcvi,,,mousedown,,Kakav sam vidio barku u oceanu?,Vidio sam bijelu barku u oceanu.,nf,,,41,,,2305
,Sequence,flow.Sequence,2_26,,,,,,completion,7510.40000002383,367858.89999997616,367855.7,367938.2,375448.60000002384,375709.7000000477,2024-07-30T18:29:20.453Z,375803,JzUOBPldlg,incremental,anketa,6645cf40bc81b65c5faccf1d,participant,hcpib7dulz8qxcvi,,,,,Kakav sam vidio barku u oceanu?,Vidio sam bijelu barku u oceanu.,nf,,,41,,,2305
,context,canvas.Screen,2_27_0_0,,,,,,response,6433,375711,375720.6,375803,382236,382481.39999997616,2024-07-30T18:29:27.225Z,382578.6,JzUOBPldlg,incremental,anketa,6645cf40bc81b65c5faccf1d,participant,hcpib7dulz8qxcvi,,,click,,Što si saznao tužnu vijest da je Petar izgubio u podzemnoj??,Saznao si tužnu vijest da je Petar izgubio putovnicu u podzemnoj..,cnp,38,34,9,,,
,Timer frame,html.Frame,2_27_0,,,,,,,6679.600000023842,375710.5,375720.6,375803,382482.60000002384,382483.3000000715,2024-07-30T18:29:27.227Z,382578.6,JzUOBPldlg,incremental,anketa,6645cf40bc81b65c5faccf1d,participant,hcpib7dulz8qxcvi,,,,,Što si saznao tužnu vijest da je Petar izgubio u podzemnoj??,Saznao si tužnu vijest da je Petar izgubio putovnicu u podzemnoj..,cnp,38,34,9,,,
,stimulus,canvas.Screen,2_27_1_0,,,,,,response,3637.9000000000233,382484.8000000715,382479.5,382578.6,386216.5,386393,2024-07-30T18:29:31.137Z,386493.4,JzUOBPldlg,incremental,anketa,6645cf40bc81b65c5faccf1d,participant,hcpib7dulz8qxcvi,,3,click @3,,Što si saznao tužnu vijest da je Petar izgubio u podzemnoj??,Saznao si tužnu vijest da je Petar izgubio putovnicu u podzemnoj..,cnp,38,34,9,,,
,Timer frame,html.Frame,2_27_1,,,,,,,3817.7999999761814,382483.89999997616,382479.5,382578.6,386396.39999997616,386397.2000000477,2024-07-30T18:29:31.141Z,386493.4,JzUOBPldlg,incremental,anketa,6645cf40bc81b65c5faccf1d,participant,hcpib7dulz8qxcvi,,,,,Što si saznao tužnu vijest da je Petar izgubio u podzemnoj??,Saznao si tužnu vijest da je Petar izgubio putovnicu u podzemnoj..,cnp,38,34,9,,,
,Spremanje,canvas.Screen,2_27_2,,,,,,skipped,,386398,,,386396.39999997616,386398.89999997616,2024-07-30T18:29:31.142Z,386493.4,JzUOBPldlg,incremental,anketa,6645cf40bc81b65c5faccf1d,participant,hcpib7dulz8qxcvi,,,,,Što si saznao tužnu vijest da je Petar izgubio u podzemnoj??,Saznao si tužnu vijest da je Petar izgubio putovnicu u podzemnoj..,cnp,38,34,9,,,
,Question form,html.Form,2_27_3,,,,,,skipped,,386399.7000000477,,,386396.39999997616,386400.3000000715,2024-07-30T18:29:31.144Z,386493.4,JzUOBPldlg,incremental,anketa,6645cf40bc81b65c5faccf1d,participant,hcpib7dulz8qxcvi,,,,,Što si saznao tužnu vijest da je Petar izgubio u podzemnoj??,Saznao si tužnu vijest da je Petar izgubio putovnicu u podzemnoj..,cnp,38,34,9,,,
,Answer indication,canvas.Screen,2_27_4,,,,,,skipped,,386407.10000002384,,,386396.39999997616,386407.7000000477,2024-07-30T18:29:31.151Z,386493.4,JzUOBPldlg,incremental,anketa,6645cf40bc81b65c5faccf1d,participant,hcpib7dulz8qxcvi,,,,,Što si saznao tužnu vijest da je Petar izgubio u podzemnoj??,Saznao si tužnu vijest da je Petar izgubio putovnicu u podzemnoj..,cnp,38,34,9,,,
,inter-stimulus,canvas.Screen,2_27_5,,,,,,response,1945.4000000715023,386408.10000002384,386377.766,386493.4,388438.8000000715,388653.39999997616,2024-07-30T18:29:33.397Z,388723.3,JzUOBPldlg,incremental,anketa,6645cf40bc81b65c5faccf1d,participant,hcpib7dulz8qxcvi,,,mousedown,,Što si saznao tužnu vijest da je Petar izgubio u podzemnoj??,Saznao si tužnu vijest da je Petar izgubio putovnicu u podzemnoj..,cnp,38,34,9,,,
,Sequence,flow.Sequence,2_27,,,,,,completion,12635.800000071526,375710.3000000715,375720.6,375803,388438.8000000715,388655.5,2024-07-30T18:29:33.399Z,388723.3,JzUOBPldlg,incremental,anketa,6645cf40bc81b65c5faccf1d,participant,hcpib7dulz8qxcvi,,,,,Što si saznao tužnu vijest da je Petar izgubio u podzemnoj??,Saznao si tužnu vijest da je Petar izgubio putovnicu u podzemnoj..,cnp,38,34,9,,,
,context,canvas.Screen,2_28_0_0,,,,,,response,2948.9000000476954,388657.10000002384,388657.2,388723.3,391672.2000000477,391918.7000000477,2024-07-30T18:29:36.662Z,392010.4,JzUOBPldlg,incremental,anketa,6645cf40bc81b65c5faccf1d,participant,hcpib7dulz8qxcvi,,,click,,"Kamo da ne odeš gladan, doručkovao si?",Doručkovao si da ne odeš gladan u planine.,ai,,,21,,,
,Timer frame,html.Frame,2_28_0,,,,,,,3196.000000071537,388656.3000000715,388657.2,388723.3,391919.3000000715,391919.8000000715,2024-07-30T18:29:36.663Z,392010.4,JzUOBPldlg,incremental,anketa,6645cf40bc81b65c5faccf1d,participant,hcpib7dulz8qxcvi,,,,,"Kamo da ne odeš gladan, doručkovao si?",Doručkovao si da ne odeš gladan u planine.,ai,,,21,,,
,stimulus,canvas.Screen,2_28_1_0,,,,,,response,3578.9000000715023,391920.8000000715,391927.8,392010.4,395589.3000000715,395785.10000002384,2024-07-30T18:29:40.529Z,395876,JzUOBPldlg,incremental,anketa,6645cf40bc81b65c5faccf1d,participant,hcpib7dulz8qxcvi,,4,click @4,,"Kamo da ne odeš gladan, doručkovao si?",Doručkovao si da ne odeš gladan u planine.,ai,,,21,,,
,Timer frame,html.Frame,2_28_1,,,,,,,3775.9000000715023,391920.3000000715,391927.8,392010.4,395786.3000000715,395791.89999997616,2024-07-30T18:29:40.535Z,395876,JzUOBPldlg,incremental,anketa,6645cf40bc81b65c5faccf1d,participant,hcpib7dulz8qxcvi,,,,,"Kamo da ne odeš gladan, doručkovao si?",Doručkovao si da ne odeš gladan u planine.,ai,,,21,,,
,Spremanje,canvas.Screen,2_28_2,,,,,,skipped,,395792.60000002384,,,395786.3000000715,395793,2024-07-30T18:29:40.537Z,395876,JzUOBPldlg,incremental,anketa,6645cf40bc81b65c5faccf1d,participant,hcpib7dulz8qxcvi,,,,,"Kamo da ne odeš gladan, doručkovao si?",Doručkovao si da ne odeš gladan u planine.,ai,,,21,,,
,Question form,html.Form,2_28_3,,,,,,skipped,,395793.8000000715,,,395786.3000000715,395794.7000000477,2024-07-30T18:29:40.538Z,395876,JzUOBPldlg,incremental,anketa,6645cf40bc81b65c5faccf1d,participant,hcpib7dulz8qxcvi,,,,,"Kamo da ne odeš gladan, doručkovao si?",Doručkovao si da ne odeš gladan u planine.,ai,,,21,,,
,Answer indication,canvas.Screen,2_28_4,,,,,,skipped,,395805,,,395786.3000000715,395805.8000000715,2024-07-30T18:29:40.549Z,395876,JzUOBPldlg,incremental,anketa,6645cf40bc81b65c5faccf1d,participant,hcpib7dulz8qxcvi,,,,,"Kamo da ne odeš gladan, doručkovao si?",Doručkovao si da ne odeš gladan u planine.,ai,,,21,,,
,inter-stimulus,canvas.Screen,2_28_5,,,,,,response,974.3000000715256,395806.7000000477,395793.3,395876,396850.3000000715,397069.10000002384,2024-07-30T18:29:41.813Z,397114.5,JzUOBPldlg,incremental,anketa,6645cf40bc81b65c5faccf1d,participant,hcpib7dulz8qxcvi,,,mousedown,,"Kamo da ne odeš gladan, doručkovao si?",Doručkovao si da ne odeš gladan u planine.,ai,,,21,,,
,Sequence,flow.Sequence,2_28,,,,,,completion,8127.000000071537,388656.10000002384,388657.2,388723.3,396850.3000000715,397070.3000000715,2024-07-30T18:29:41.814Z,397114.5,JzUOBPldlg,incremental,anketa,6645cf40bc81b65c5faccf1d,participant,hcpib7dulz8qxcvi,,,,,"Kamo da ne odeš gladan, doručkovao si?",Doručkovao si da ne odeš gladan u planine.,ai,,,21,,,
,context,canvas.Screen,2_29_0_0,,,,,,response,3048.100000023842,397071.39999997616,397081.4,397114.5,400162.60000002384,400401.39999997616,2024-07-30T18:29:45.145Z,400487.2,JzUOBPldlg,incremental,anketa,6645cf40bc81b65c5faccf1d,participant,hcpib7dulz8qxcvi,,,click,,Lijepe su samo crne čizme bile u ovom ormaru.,Samo su crne čizme bile lijepe stvari u ovom ormaru.,di,,,34,CRNA; CRNE; CRNI; CRNO; CRN,Boja cipela je?,
,Timer frame,html.Frame,2_29_0,,,,,,,3288.5,397070.8000000715,397081.4,397114.5,400403,400403.8000000715,2024-07-30T18:29:45.147Z,400487.2,JzUOBPldlg,incremental,anketa,6645cf40bc81b65c5faccf1d,participant,hcpib7dulz8qxcvi,,,,,Lijepe su samo crne čizme bile u ovom ormaru.,Samo su crne čizme bile lijepe stvari u ovom ormaru.,di,,,34,CRNA; CRNE; CRNI; CRNO; CRN,Boja cipela je?,
,stimulus,canvas.Screen,2_29_1_0,,,,,,response,3362.90000002383,400405.2000000477,400404.6,400487.2,403850.10000002384,404049.5,2024-07-30T18:29:48.793Z,404123.5,JzUOBPldlg,incremental,anketa,6645cf40bc81b65c5faccf1d,participant,hcpib7dulz8qxcvi,,4,click @4,,Lijepe su samo crne čizme bile u ovom ormaru.,Samo su crne čizme bile lijepe stvari u ovom ormaru.,di,,,34,CRNA; CRNE; CRNI; CRNO; CRN,Boja cipela je?,
,Timer frame,html.Frame,2_29_1,,,,,,,3563.100000071514,400404.39999997616,400404.6,400487.2,404050.3000000715,404050.8000000715,2024-07-30T18:29:48.794Z,404123.5,JzUOBPldlg,incremental,anketa,6645cf40bc81b65c5faccf1d,participant,hcpib7dulz8qxcvi,,,,,Lijepe su samo crne čizme bile u ovom ormaru.,Samo su crne čizme bile lijepe stvari u ovom ormaru.,di,,,34,CRNA; CRNE; CRNI; CRNO; CRN,Boja cipela je?,
,Spremanje,canvas.Screen,2_29_2,,,,,,response,4466.200000047684,404051.2000000477,404057.4,404123.5,408589.7000000477,408813.89999997616,2024-07-30T18:29:53.557Z,408897.4,JzUOBPldlg,incremental,anketa,6645cf40bc81b65c5faccf1d,participant,hcpib7dulz8qxcvi,,,mousedown,,Lijepe su samo crne čizme bile u ovom ormaru.,Samo su crne čizme bile lijepe stvari u ovom ormaru.,di,,,34,CRNA; CRNE; CRNI; CRNO; CRN,Boja cipela je?,
