meta,sender,sender_type,sender_id,age,education,croatian-knowledge,occupation,,ended_on,duration,time_run,time_render,time_show,time_end,time_commit,timestamp,time_switch,openLabId,type,task,project,status,code,confirmationCode,response,response_action,answer_true,stimulus,context,island_type,transfer_s,transfer_c,id,right_answer,question,change_date
"{""labjs_version"":""20.2.4"",""labjs_build"":{""flavor"":""production"",""commit"":""f5b4a49f956347addd546a832a3327688c2c0fef""},""location"":""https://open-lab.online/test/anketa/66719436eed7e641ddd30da4"",""userAgent"":""Mozilla/5.0 (Android 12; Mobile; rv:109.0) Gecko/117.0 Firefox/117.0"",""platform"":""Linux aarch64"",""language"":""it-HR"",""locale"":""it"",""timeZone"":""Europe/Zagreb"",""timezoneOffset"":-120,""screen_width"":360,""screen_height"":796,""scroll_width"":360,""scroll_height"":763,""window_innerWidth"":360,""window_innerHeight"":763,""devicePixelRatio"":3}",Demography form,html.Form,0,23,bachelor,mother-tongue,"Fonetika, glazba",,form submission,56246.56,6596,6597.42,6776.44,63023,63033,2024-06-18T14:06:44.743Z,63165.28,l-OWYBtB7v,incremental,anketa,6645cf40bc81b65c5faccf1d,participant,hcpibd0dlxkh8ipg,135873,,,,,,,,,,,,
,context,canvas.Screen,1_0,,,,,,response,24091.72,63038,63003,63165.28,87257,87269,2024-06-18T14:07:08.979Z,87341.32,l-OWYBtB7v,incremental,anketa,6645cf40bc81b65c5faccf1d,participant,hcpibd0dlxkh8ipg,,,click,,,,,,,,,,
,stimulus,canvas.Screen,1_1,,,,,,response,19548.679999999993,87273,87255.94,87341.32,106890,106895,2024-06-18T14:07:28.604Z,107014.16,l-OWYBtB7v,incremental,anketa,6645cf40bc81b65c5faccf1d,participant,hcpibd0dlxkh8ipg,,7,click @7,,,,,,,,,,
,inter-stimulus,canvas.Screen,1_2,,,,,,response,3962.8399999999965,106896,106889.44,107014.16,110977,110981,2024-06-18T14:07:32.689Z,111148.78,l-OWYBtB7v,incremental,anketa,6645cf40bc81b65c5faccf1d,participant,hcpibd0dlxkh8ipg,,,mousedown,,,,,,,,,,
,context,canvas.Screen,1_3,,,,,,response,21104.22,110982,110976.22,111148.78,132253,132261,2024-06-18T14:07:53.970Z,132307.7,l-OWYBtB7v,incremental,anketa,6645cf40bc81b65c5faccf1d,participant,hcpibd0dlxkh8ipg,,,click,,,,,,,,,,
,stimulus,canvas.Screen,1_4,,,,,,response,21466.29999999999,132263,132248.3,132307.7,153774,153779,2024-06-18T14:08:15.488Z,153818,l-OWYBtB7v,incremental,anketa,6645cf40bc81b65c5faccf1d,participant,hcpibd0dlxkh8ipg,,1,click @1,,,,,,,,,,
,inter-stimulus,canvas.Screen,1_5,,,,,,response,7577,153780,153769.28,153818,161395,161402,2024-06-18T14:08:23.111Z,161515.42,l-OWYBtB7v,incremental,anketa,6645cf40bc81b65c5faccf1d,participant,hcpibd0dlxkh8ipg,,,mousedown,,,,,,,,,,
,context,canvas.Screen,1_6,,,,,,response,4467.579999999987,161410,161394.3,161515.42,165983,165990,2024-06-18T14:08:27.698Z,166121.84,l-OWYBtB7v,incremental,anketa,6645cf40bc81b65c5faccf1d,participant,hcpibd0dlxkh8ipg,,,click,,,,,,,,,,
,stimulus,canvas.Screen,1_7_0,,,,,,response,7778.1600000000035,165994,165978.86,166121.84,173900,173904,2024-06-18T14:08:35.613Z,174082.04,l-OWYBtB7v,incremental,anketa,6645cf40bc81b65c5faccf1d,participant,hcpibd0dlxkh8ipg,,6,click @6,,,,,,,,,,
,Timer frame,html.Frame,1_7,,,,,,,7783.1600000000035,165992,165978.86,166121.84,173905,173906,2024-06-18T14:08:35.615Z,174082.04,l-OWYBtB7v,incremental,anketa,6645cf40bc81b65c5faccf1d,participant,hcpibd0dlxkh8ipg,,,,,,,,,,,,,
,Screen,canvas.Screen,1_8,,,,,,response,11649.959999999992,173909,173898.54,174082.04,185732,185736,2024-06-18T14:08:47.445Z,185750.48,l-OWYBtB7v,incremental,anketa,6645cf40bc81b65c5faccf1d,participant,hcpibd0dlxkh8ipg,,,mousedown,,,,,,,,,,
,Question form,html.Form,1_9,,,,,,form submission,36914.51999999999,185738,185730.84,185750.48,222665,222672,2024-06-18T14:09:24.381Z,222715.72,l-OWYBtB7v,incremental,anketa,6645cf40bc81b65c5faccf1d,participant,hcpibd0dlxkh8ipg,,,,Zrele,,,,,,,,,
,Screen,canvas.Screen,1_10,,,,,,response,4656.279999999999,222697,222641.36,222715.72,227372,227375,2024-06-18T14:09:29.084Z,227421.84,l-OWYBtB7v,incremental,anketa,6645cf40bc81b65c5faccf1d,participant,hcpibd0dlxkh8ipg,,,mousedown,,,,,,,,,,
,inter-stimulus,canvas.Screen,1_11,,,,,,response,6516.1600000000035,227377,227370.84,227421.84,233938,233942,2024-06-18T14:09:35.652Z,234031.4,l-OWYBtB7v,incremental,anketa,6645cf40bc81b65c5faccf1d,participant,hcpibd0dlxkh8ipg,,,mousedown,,,,,,,,,,
,First stimuli,flow.Sequence,1,,,,,,completion,170772.72,63038,63003,63165.28,233938,233944,2024-06-18T14:09:35.654Z,234031.4,l-OWYBtB7v,incremental,anketa,6645cf40bc81b65c5faccf1d,participant,hcpibd0dlxkh8ipg,,,,,,,,,,,,,
,context,canvas.Screen,2_0_0_0,,,,,,response,7581.600000000006,233949,233937.48,234031.4,241613,241615,2024-06-18T14:09:43.325Z,241696.72,l-OWYBtB7v,incremental,anketa,6645cf40bc81b65c5faccf1d,participant,hcpibd0dlxkh8ipg,,,click,,Što ćemo uništit i saditi vrtove?,Uništit ćemo carstva i saditi vrtove.,csi,0,0,5,,,
,Timer frame,html.Frame,2_0_0,,,,,,,7584.600000000006,233947,233937.48,234031.4,241616,241617,2024-06-18T14:09:43.326Z,241696.72,l-OWYBtB7v,incremental,anketa,6645cf40bc81b65c5faccf1d,participant,hcpibd0dlxkh8ipg,,,,,Što ćemo uništit i saditi vrtove?,Uništit ćemo carstva i saditi vrtove.,csi,0,0,5,,,
,stimulus,canvas.Screen,2_0_1_0,,,,,,response,8504.279999999999,241618,241611.06,241696.72,250201,250216,2024-06-18T14:09:51.925Z,250282.54,l-OWYBtB7v,incremental,anketa,6645cf40bc81b65c5faccf1d,participant,hcpibd0dlxkh8ipg,,3,click @3,,Što ćemo uništit i saditi vrtove?,Uništit ćemo carstva i saditi vrtove.,csi,0,0,5,,,
,Timer frame,html.Frame,2_0_1,,,,,,,8524.279999999999,241618,241611.06,241696.72,250221,250222,2024-06-18T14:09:51.931Z,250282.54,l-OWYBtB7v,incremental,anketa,6645cf40bc81b65c5faccf1d,participant,hcpibd0dlxkh8ipg,,,,,Što ćemo uništit i saditi vrtove?,Uništit ćemo carstva i saditi vrtove.,csi,0,0,5,,,
,Spremanje,canvas.Screen,2_0_2,,,,,,skipped,,250224,,,250221,250224,2024-06-18T14:09:51.933Z,250282.54,l-OWYBtB7v,incremental,anketa,6645cf40bc81b65c5faccf1d,participant,hcpibd0dlxkh8ipg,,,,,Što ćemo uništit i saditi vrtove?,Uništit ćemo carstva i saditi vrtove.,csi,0,0,5,,,
,Question form,html.Form,2_0_3,,,,,,skipped,,250225,,,250221,250225,2024-06-18T14:09:51.934Z,250282.54,l-OWYBtB7v,incremental,anketa,6645cf40bc81b65c5faccf1d,participant,hcpibd0dlxkh8ipg,,,,,Što ćemo uništit i saditi vrtove?,Uništit ćemo carstva i saditi vrtove.,csi,0,0,5,,,
,Answer indication,canvas.Screen,2_0_4,,,,,,skipped,,250257,,,250221,250258,2024-06-18T14:09:51.967Z,250282.54,l-OWYBtB7v,incremental,anketa,6645cf40bc81b65c5faccf1d,participant,hcpibd0dlxkh8ipg,,,,,Što ćemo uništit i saditi vrtove?,Uništit ćemo carstva i saditi vrtove.,csi,0,0,5,,,
,inter-stimulus,canvas.Screen,2_0_5,,,,,,response,2272.459999999992,250260,250198.48,250282.54,252555,252558,2024-06-18T14:09:54.267Z,252601.38,l-OWYBtB7v,incremental,anketa,6645cf40bc81b65c5faccf1d,participant,hcpibd0dlxkh8ipg,,,mousedown,,Što ćemo uništit i saditi vrtove?,Uništit ćemo carstva i saditi vrtove.,csi,0,0,5,,,
,Sequence,flow.Sequence,2_0,,,,,,completion,18523.600000000006,233946,233937.48,234031.4,252555,252560,2024-06-18T14:09:54.269Z,252601.38,l-OWYBtB7v,incremental,anketa,6645cf40bc81b65c5faccf1d,participant,hcpibd0dlxkh8ipg,,,,,Što ćemo uništit i saditi vrtove?,Uništit ćemo carstva i saditi vrtove.,csi,0,0,5,,,
,context,canvas.Screen,2_1_0_0,,,,,,response,8109.619999999995,252563,252553.26,252601.38,260711,260714,2024-06-18T14:10:02.423Z,260798.92,l-OWYBtB7v,incremental,anketa,6645cf40bc81b65c5faccf1d,participant,hcpibd0dlxkh8ipg,,,click,,"Kamo je djevojka razmišljala o slobode, idući?","Djevojka je razmišljala o slobode, idući do mora.",ai,,,23,,,
,Timer frame,html.Frame,2_1_0,,,,,,,8112.619999999995,252562,252553.26,252601.38,260714,260715,2024-06-18T14:10:02.424Z,260798.92,l-OWYBtB7v,incremental,anketa,6645cf40bc81b65c5faccf1d,participant,hcpibd0dlxkh8ipg,,,,,"Kamo je djevojka razmišljala o slobode, idući?","Djevojka je razmišljala o slobode, idući do mora.",ai,,,23,,,
,stimulus,canvas.Screen,2_1_1_0,,,,,,response,5189.079999999987,260716,260709.84,260798.92,265988,265991,2024-06-18T14:10:07.700Z,266241.66,l-OWYBtB7v,incremental,anketa,6645cf40bc81b65c5faccf1d,participant,hcpibd0dlxkh8ipg,,2,click @2,,"Kamo je djevojka razmišljala o slobode, idući?","Djevojka je razmišljala o slobode, idući do mora.",ai,,,23,,,
,Timer frame,html.Frame,2_1_1,,,,,,,5192.079999999987,260715,260709.84,260798.92,265991,265993,2024-06-18T14:10:07.702Z,266241.66,l-OWYBtB7v,incremental,anketa,6645cf40bc81b65c5faccf1d,participant,hcpibd0dlxkh8ipg,,,,,"Kamo je djevojka razmišljala o slobode, idući?","Djevojka je razmišljala o slobode, idući do mora.",ai,,,23,,,
,Spremanje,canvas.Screen,2_1_2,,,,,,skipped,,265993,,,265991,265994,2024-06-18T14:10:07.703Z,266241.66,l-OWYBtB7v,incremental,anketa,6645cf40bc81b65c5faccf1d,participant,hcpibd0dlxkh8ipg,,,,,"Kamo je djevojka razmišljala o slobode, idući?","Djevojka je razmišljala o slobode, idući do mora.",ai,,,23,,,
,Question form,html.Form,2_1_3,,,,,,skipped,,265995,,,265991,265995,2024-06-18T14:10:07.704Z,266241.66,l-OWYBtB7v,incremental,anketa,6645cf40bc81b65c5faccf1d,participant,hcpibd0dlxkh8ipg,,,,,"Kamo je djevojka razmišljala o slobode, idući?","Djevojka je razmišljala o slobode, idući do mora.",ai,,,23,,,
,Answer indication,canvas.Screen,2_1_4,,,,,,skipped,,266004,,,265991,266005,2024-06-18T14:10:07.714Z,266241.66,l-OWYBtB7v,incremental,anketa,6645cf40bc81b65c5faccf1d,participant,hcpibd0dlxkh8ipg,,,,,"Kamo je djevojka razmišljala o slobode, idući?","Djevojka je razmišljala o slobode, idući do mora.",ai,,,23,,,
,inter-stimulus,canvas.Screen,2_1_5,,,,,,response,8203.340000000026,266006,265985.66,266241.66,274445,274449,2024-06-18T14:10:16.158Z,274486.72,l-OWYBtB7v,incremental,anketa,6645cf40bc81b65c5faccf1d,participant,hcpibd0dlxkh8ipg,,,mousedown,,"Kamo je djevojka razmišljala o slobode, idući?","Djevojka je razmišljala o slobode, idući do mora.",ai,,,23,,,
,Sequence,flow.Sequence,2_1,,,,,,completion,21843.619999999995,252562,252553.26,252601.38,274445,274451,2024-06-18T14:10:16.160Z,274486.72,l-OWYBtB7v,incremental,anketa,6645cf40bc81b65c5faccf1d,participant,hcpibd0dlxkh8ipg,,,,,"Kamo je djevojka razmišljala o slobode, idući?","Djevojka je razmišljala o slobode, idući do mora.",ai,,,23,,,
,context,canvas.Screen,2_2_0_0,,,,,,timeout,11057.240000000049,274453,274444.3,274486.72,285477.32,285490,2024-06-18T14:10:27.199Z,285543.96,l-OWYBtB7v,incremental,anketa,6645cf40bc81b65c5faccf1d,participant,hcpibd0dlxkh8ipg,,,,,Tko ono da je prodao svoj stan za toliki novac nevjerojatno je??,Ono da je Goran prodao svoj stan za toliki novac nevjerojatno je..,si,30,32,17,,,
,Timer frame,html.Frame,2_2_0,,,,,,,11007.280000000028,274452,274444.3,274486.72,285494,285495,2024-06-18T14:10:27.204Z,285577.28,l-OWYBtB7v,incremental,anketa,6645cf40bc81b65c5faccf1d,participant,hcpibd0dlxkh8ipg,,,,,Tko ono da je prodao svoj stan za toliki novac nevjerojatno je??,Ono da je Goran prodao svoj stan za toliki novac nevjerojatno je..,si,30,32,17,,,
,stimulus,canvas.Screen,2_2_1_0,,,,,,response,7947.719999999972,285497,285543.96,285577.28,293525,293528,2024-06-18T14:10:35.237Z,293707.08,l-OWYBtB7v,incremental,anketa,6645cf40bc81b65c5faccf1d,participant,hcpibd0dlxkh8ipg,,1,click @1,,Tko ono da je prodao svoj stan za toliki novac nevjerojatno je??,Ono da je Goran prodao svoj stan za toliki novac nevjerojatno je..,si,30,32,17,,,
,Timer frame,html.Frame,2_2_1,,,,,,,7950.719999999972,285496,285543.96,285577.28,293528,293528,2024-06-18T14:10:35.238Z,293707.08,l-OWYBtB7v,incremental,anketa,6645cf40bc81b65c5faccf1d,participant,hcpibd0dlxkh8ipg,,,,,Tko ono da je prodao svoj stan za toliki novac nevjerojatno je??,Ono da je Goran prodao svoj stan za toliki novac nevjerojatno je..,si,30,32,17,,,
,Spremanje,canvas.Screen,2_2_2,,,,,,skipped,,293530,,,293528,293530,2024-06-18T14:10:35.239Z,293707.08,l-OWYBtB7v,incremental,anketa,6645cf40bc81b65c5faccf1d,participant,hcpibd0dlxkh8ipg,,,,,Tko ono da je prodao svoj stan za toliki novac nevjerojatno je??,Ono da je Goran prodao svoj stan za toliki novac nevjerojatno je..,si,30,32,17,,,
,Question form,html.Form,2_2_3,,,,,,skipped,,293530,,,293528,293531,2024-06-18T14:10:35.240Z,293707.08,l-OWYBtB7v,incremental,anketa,6645cf40bc81b65c5faccf1d,participant,hcpibd0dlxkh8ipg,,,,,Tko ono da je prodao svoj stan za toliki novac nevjerojatno je??,Ono da je Goran prodao svoj stan za toliki novac nevjerojatno je..,si,30,32,17,,,
,Answer indication,canvas.Screen,2_2_4,,,,,,skipped,,293558,,,293528,293559,2024-06-18T14:10:35.268Z,293707.08,l-OWYBtB7v,incremental,anketa,6645cf40bc81b65c5faccf1d,participant,hcpibd0dlxkh8ipg,,,,,Tko ono da je prodao svoj stan za toliki novac nevjerojatno je??,Ono da je Goran prodao svoj stan za toliki novac nevjerojatno je..,si,30,32,17,,,
,inter-stimulus,canvas.Screen,2_2_5,,,,,,response,7047.919999999984,293560,293522.02,293707.08,300755,300757,2024-06-18T14:10:42.466Z,300848.3,l-OWYBtB7v,incremental,anketa,6645cf40bc81b65c5faccf1d,participant,hcpibd0dlxkh8ipg,,,mousedown,,Tko ono da je prodao svoj stan za toliki novac nevjerojatno je??,Ono da je Goran prodao svoj stan za toliki novac nevjerojatno je..,si,30,32,17,,,
,Sequence,flow.Sequence,2_2,,,,,,completion,26268.280000000028,274452,274444.3,274486.72,300755,300758,2024-06-18T14:10:42.467Z,300848.3,l-OWYBtB7v,incremental,anketa,6645cf40bc81b65c5faccf1d,participant,hcpibd0dlxkh8ipg,,,,,Tko ono da je prodao svoj stan za toliki novac nevjerojatno je??,Ono da je Goran prodao svoj stan za toliki novac nevjerojatno je..,si,30,32,17,,,
,context,canvas.Screen,2_3_0_0,,,,,,response,7994.700000000012,300761,300754.22,300848.3,308843,308847,2024-06-18T14:10:50.556Z,309023.36,l-OWYBtB7v,incremental,anketa,6645cf40bc81b65c5faccf1d,participant,hcpibd0dlxkh8ipg,,,click,,Tko strah me i zamisliti s kakvim će se ogorčenjem vratiti kući??,Strah me i zamisliti s kakvim će se ogorčenjem moj brat vratiti kući..,ai,24,20,29,,,
,Timer frame,html.Frame,2_3_0,,,,,,,8000.700000000012,300760,300754.22,300848.3,308849,308852,2024-06-18T14:10:50.561Z,309023.36,l-OWYBtB7v,incremental,anketa,6645cf40bc81b65c5faccf1d,participant,hcpibd0dlxkh8ipg,,,,,Tko strah me i zamisliti s kakvim će se ogorčenjem vratiti kući??,Strah me i zamisliti s kakvim će se ogorčenjem moj brat vratiti kući..,ai,24,20,29,,,
,stimulus,canvas.Screen,2_3_1_0,,,,,,response,9420.640000000014,308854,308840.5,309023.36,318444,318447,2024-06-18T14:11:00.157Z,318748.08,l-OWYBtB7v,incremental,anketa,6645cf40bc81b65c5faccf1d,participant,hcpibd0dlxkh8ipg,,2,click @2,,Tko strah me i zamisliti s kakvim će se ogorčenjem vratiti kući??,Strah me i zamisliti s kakvim će se ogorčenjem moj brat vratiti kući..,ai,24,20,29,,,
,Timer frame,html.Frame,2_3_1,,,,,,,9424.640000000014,308853,308840.5,309023.36,318448,318449,2024-06-18T14:11:00.158Z,318748.08,l-OWYBtB7v,incremental,anketa,6645cf40bc81b65c5faccf1d,participant,hcpibd0dlxkh8ipg,,,,,Tko strah me i zamisliti s kakvim će se ogorčenjem vratiti kući??,Strah me i zamisliti s kakvim će se ogorčenjem moj brat vratiti kući..,ai,24,20,29,,,
,Spremanje,canvas.Screen,2_3_2,,,,,,skipped,,318449,,,318448,318449,2024-06-18T14:11:00.159Z,318748.08,l-OWYBtB7v,incremental,anketa,6645cf40bc81b65c5faccf1d,participant,hcpibd0dlxkh8ipg,,,,,Tko strah me i zamisliti s kakvim će se ogorčenjem vratiti kući??,Strah me i zamisliti s kakvim će se ogorčenjem moj brat vratiti kući..,ai,24,20,29,,,
,Question form,html.Form,2_3_3,,,,,,skipped,,318450,,,318448,318451,2024-06-18T14:11:00.161Z,318748.08,l-OWYBtB7v,incremental,anketa,6645cf40bc81b65c5faccf1d,participant,hcpibd0dlxkh8ipg,,,,,Tko strah me i zamisliti s kakvim će se ogorčenjem vratiti kući??,Strah me i zamisliti s kakvim će se ogorčenjem moj brat vratiti kući..,ai,24,20,29,,,
,Answer indication,canvas.Screen,2_3_4,,,,,,skipped,,318460,,,318448,318460,2024-06-18T14:11:00.169Z,318748.08,l-OWYBtB7v,incremental,anketa,6645cf40bc81b65c5faccf1d,participant,hcpibd0dlxkh8ipg,,,,,Tko strah me i zamisliti s kakvim će se ogorčenjem vratiti kući??,Strah me i zamisliti s kakvim će se ogorčenjem moj brat vratiti kući..,ai,24,20,29,,,
,inter-stimulus,canvas.Screen,2_3_5,,,,,,response,1131.9199999999837,318461,318441.94,318748.08,319880,319885,2024-06-18T14:11:01.595Z,320080.54,l-OWYBtB7v,incremental,anketa,6645cf40bc81b65c5faccf1d,participant,hcpibd0dlxkh8ipg,,,mousedown,,Tko strah me i zamisliti s kakvim će se ogorčenjem vratiti kući??,Strah me i zamisliti s kakvim će se ogorčenjem moj brat vratiti kući..,ai,24,20,29,,,
,Sequence,flow.Sequence,2_3,,,,,,completion,19031.70000000001,300759,300754.22,300848.3,319880,319891,2024-06-18T14:11:01.600Z,320080.54,l-OWYBtB7v,incremental,anketa,6645cf40bc81b65c5faccf1d,participant,hcpibd0dlxkh8ipg,,,,,Tko strah me i zamisliti s kakvim će se ogorčenjem vratiti kući??,Strah me i zamisliti s kakvim će se ogorčenjem moj brat vratiti kući..,ai,24,20,29,,,
,context,canvas.Screen,2_4_0_0,,,,,,timeout,11227.140000000014,319895,319879.46,320080.54,331057.8,331061,2024-06-18T14:11:12.770Z,331307.68,l-OWYBtB7v,incremental,anketa,6645cf40bc81b65c5faccf1d,participant,hcpibd0dlxkh8ipg,,,,,"To su oni siromasi, koje je htio nahraniti i moliti se bogu..",Hoće nahraniti siromahe i moliti se bogu.,csi,42,0,6,,,
,Timer frame,html.Frame,2_4_0,,,,,,,10980.460000000021,319893,319879.46,320080.54,331061,331062,2024-06-18T14:11:12.772Z,331341,l-OWYBtB7v,incremental,anketa,6645cf40bc81b65c5faccf1d,participant,hcpibd0dlxkh8ipg,,,,,"To su oni siromasi, koje je htio nahraniti i moliti se bogu..",Hoće nahraniti siromahe i moliti se bogu.,csi,42,0,6,,,
,stimulus,canvas.Screen,2_4_1_0,,,,,,timeout,11244.76000000001,331066,331307.68,331341,342319.2,342322,2024-06-18T14:11:24.031Z,342585.76,l-OWYBtB7v,incremental,anketa,6645cf40bc81b65c5faccf1d,participant,hcpibd0dlxkh8ipg,,,,,"To su oni siromasi, koje je htio nahraniti i moliti se bogu..",Hoće nahraniti siromahe i moliti se bogu.,csi,42,0,6,,,
,Timer frame,html.Frame,2_4_1,,,,,,,10981,331064,331307.68,331341,342322,342324,2024-06-18T14:11:24.033Z,342635.74,l-OWYBtB7v,incremental,anketa,6645cf40bc81b65c5faccf1d,participant,hcpibd0dlxkh8ipg,,,,,"To su oni siromasi, koje je htio nahraniti i moliti se bogu..",Hoće nahraniti siromahe i moliti se bogu.,csi,42,0,6,,,
,Spremanje,canvas.Screen,2_4_2,,,,,,skipped,,342325,,,342322,342325,2024-06-18T14:11:24.034Z,342635.74,l-OWYBtB7v,incremental,anketa,6645cf40bc81b65c5faccf1d,participant,hcpibd0dlxkh8ipg,,,,,"To su oni siromasi, koje je htio nahraniti i moliti se bogu..",Hoće nahraniti siromahe i moliti se bogu.,csi,42,0,6,,,
,Question form,html.Form,2_4_3,,,,,,skipped,,342326,,,342322,342326,2024-06-18T14:11:24.035Z,342635.74,l-OWYBtB7v,incremental,anketa,6645cf40bc81b65c5faccf1d,participant,hcpibd0dlxkh8ipg,,,,,"To su oni siromasi, koje je htio nahraniti i moliti se bogu..",Hoće nahraniti siromahe i moliti se bogu.,csi,42,0,6,,,
,Answer indication,canvas.Screen,2_4_4,,,,,,skipped,,342354,,,342322,342355,2024-06-18T14:11:24.064Z,342635.74,l-OWYBtB7v,incremental,anketa,6645cf40bc81b65c5faccf1d,participant,hcpibd0dlxkh8ipg,,,,,"To su oni siromasi, koje je htio nahraniti i moliti se bogu..",Hoće nahraniti siromahe i moliti se bogu.,csi,42,0,6,,,
,inter-stimulus,canvas.Screen,2_4_5,,,,,,response,3418.2600000000093,342356,342585.76,342635.74,346054,346072,2024-06-18T14:11:27.782Z,346236.34,l-OWYBtB7v,incremental,anketa,6645cf40bc81b65c5faccf1d,participant,hcpibd0dlxkh8ipg,,,mousedown,,"To su oni siromasi, koje je htio nahraniti i moliti se bogu..",Hoće nahraniti siromahe i moliti se bogu.,csi,42,0,6,,,
,Sequence,flow.Sequence,2_4,,,,,,completion,25973.46000000002,319892,319879.46,320080.54,346054,346083,2024-06-18T14:11:27.792Z,346236.34,l-OWYBtB7v,incremental,anketa,6645cf40bc81b65c5faccf1d,participant,hcpibd0dlxkh8ipg,,,,,"To su oni siromasi, koje je htio nahraniti i moliti se bogu..",Hoće nahraniti siromahe i moliti se bogu.,csi,42,0,6,,,
,context,canvas.Screen,2_5_0_0,,,,,,response,3993.6599999999744,346087,346053.48,346236.34,350230,350235,2024-06-18T14:11:31.944Z,350275.3,l-OWYBtB7v,incremental,anketa,6645cf40bc81b65c5faccf1d,participant,hcpibd0dlxkh8ipg,,,click,,"Što je kupio tata, i spremila je majka?","Tata je kupio meso, a majka je spremila salatu.",csi,,,7,,,
,Timer frame,html.Frame,2_5_0,,,,,,,3998.6599999999744,346085,346053.48,346236.34,350235,350236,2024-06-18T14:11:31.945Z,350275.3,l-OWYBtB7v,incremental,anketa,6645cf40bc81b65c5faccf1d,participant,hcpibd0dlxkh8ipg,,,,,"Što je kupio tata, i spremila je majka?","Tata je kupio meso, a majka je spremila salatu.",csi,,,7,,,
,stimulus,canvas.Screen,2_5_1_0,,,,,,response,5608.700000000012,350237,350227.78,350275.3,355884,355888,2024-06-18T14:11:37.598Z,355984.5,l-OWYBtB7v,incremental,anketa,6645cf40bc81b65c5faccf1d,participant,hcpibd0dlxkh8ipg,,4,click @4,,"Što je kupio tata, i spremila je majka?","Tata je kupio meso, a majka je spremila salatu.",csi,,,7,,,
,Timer frame,html.Frame,2_5_1,,,,,,,5613.700000000012,350236,350227.78,350275.3,355889,355889,2024-06-18T14:11:37.599Z,355984.5,l-OWYBtB7v,incremental,anketa,6645cf40bc81b65c5faccf1d,participant,hcpibd0dlxkh8ipg,,,,,"Što je kupio tata, i spremila je majka?","Tata je kupio meso, a majka je spremila salatu.",csi,,,7,,,
,Spremanje,canvas.Screen,2_5_2,,,,,,skipped,,355890,,,355889,355890,2024-06-18T14:11:37.600Z,355984.5,l-OWYBtB7v,incremental,anketa,6645cf40bc81b65c5faccf1d,participant,hcpibd0dlxkh8ipg,,,,,"Što je kupio tata, i spremila je majka?","Tata je kupio meso, a majka je spremila salatu.",csi,,,7,,,
,Question form,html.Form,2_5_3,,,,,,skipped,,355891,,,355889,355892,2024-06-18T14:11:37.601Z,355984.5,l-OWYBtB7v,incremental,anketa,6645cf40bc81b65c5faccf1d,participant,hcpibd0dlxkh8ipg,,,,,"Što je kupio tata, i spremila je majka?","Tata je kupio meso, a majka je spremila salatu.",csi,,,7,,,
,Answer indication,canvas.Screen,2_5_4,,,,,,skipped,,355919,,,355889,355919,2024-06-18T14:11:37.629Z,355984.5,l-OWYBtB7v,incremental,anketa,6645cf40bc81b65c5faccf1d,participant,hcpibd0dlxkh8ipg,,,,,"Što je kupio tata, i spremila je majka?","Tata je kupio meso, a majka je spremila salatu.",csi,,,7,,,
,inter-stimulus,canvas.Screen,2_5_5,,,,,,response,809.5,355921,355882.26,355984.5,356794,356797,2024-06-18T14:11:38.506Z,356829.34,l-OWYBtB7v,incremental,anketa,6645cf40bc81b65c5faccf1d,participant,hcpibd0dlxkh8ipg,,,mousedown,,"Što je kupio tata, i spremila je majka?","Tata je kupio meso, a majka je spremila salatu.",csi,,,7,,,
,Sequence,flow.Sequence,2_5,,,,,,completion,10557.659999999974,346084,346053.48,346236.34,356794,356798,2024-06-18T14:11:38.508Z,356829.34,l-OWYBtB7v,incremental,anketa,6645cf40bc81b65c5faccf1d,participant,hcpibd0dlxkh8ipg,,,,,"Što je kupio tata, i spremila je majka?","Tata je kupio meso, a majka je spremila salatu.",csi,,,7,,,
,context,canvas.Screen,2_6_0_0,,,,,,response,6214.659999999974,356800,356793.9,356829.34,363044,363046,2024-06-18T14:11:44.755Z,363131.02,l-OWYBtB7v,incremental,anketa,6645cf40bc81b65c5faccf1d,participant,hcpibd0dlxkh8ipg,,,click,,"Koliko čega Luka je zaboravio, on mi je posudio?","Luka je zaboravio, koliko mi je novca posudio.",ai,,,28,,,
,Timer frame,html.Frame,2_6_0,,,,,,,6216.659999999974,356799,356793.9,356829.34,363046,363047,2024-06-18T14:11:44.757Z,363131.02,l-OWYBtB7v,incremental,anketa,6645cf40bc81b65c5faccf1d,participant,hcpibd0dlxkh8ipg,,,,,"Koliko čega Luka je zaboravio, on mi je posudio?","Luka je zaboravio, koliko mi je novca posudio.",ai,,,28,,,
,stimulus,canvas.Screen,2_6_1_0,,,,,,response,6133.979999999981,363050,363053.26,363131.02,369265,369268,2024-06-18T14:11:50.977Z,369400.38,l-OWYBtB7v,incremental,anketa,6645cf40bc81b65c5faccf1d,participant,hcpibd0dlxkh8ipg,,3,click @3,,"Koliko čega Luka je zaboravio, on mi je posudio?","Luka je zaboravio, koliko mi je novca posudio.",ai,,,28,,,
,Timer frame,html.Frame,2_6_1,,,,,,,6136.979999999981,363048,363053.26,363131.02,369268,369269,2024-06-18T14:11:50.979Z,369400.38,l-OWYBtB7v,incremental,anketa,6645cf40bc81b65c5faccf1d,participant,hcpibd0dlxkh8ipg,,,,,"Koliko čega Luka je zaboravio, on mi je posudio?","Luka je zaboravio, koliko mi je novca posudio.",ai,,,28,,,
,Spremanje,canvas.Screen,2_6_2,,,,,,skipped,,369271,,,369268,369272,2024-06-18T14:11:50.980Z,369400.38,l-OWYBtB7v,incremental,anketa,6645cf40bc81b65c5faccf1d,participant,hcpibd0dlxkh8ipg,,,,,"Koliko čega Luka je zaboravio, on mi je posudio?","Luka je zaboravio, koliko mi je novca posudio.",ai,,,28,,,
,Question form,html.Form,2_6_3,,,,,,skipped,,369272,,,369268,369273,2024-06-18T14:11:50.982Z,369400.38,l-OWYBtB7v,incremental,anketa,6645cf40bc81b65c5faccf1d,participant,hcpibd0dlxkh8ipg,,,,,"Koliko čega Luka je zaboravio, on mi je posudio?","Luka je zaboravio, koliko mi je novca posudio.",ai,,,28,,,
,Answer indication,canvas.Screen,2_6_4,,,,,,skipped,,369288,,,369268,369289,2024-06-18T14:11:50.999Z,369400.38,l-OWYBtB7v,incremental,anketa,6645cf40bc81b65c5faccf1d,participant,hcpibd0dlxkh8ipg,,,,,"Koliko čega Luka je zaboravio, on mi je posudio?","Luka je zaboravio, koliko mi je novca posudio.",ai,,,28,,,
,inter-stimulus,canvas.Screen,2_6_5,,,,,,response,851.6199999999953,369290,369261.36,369400.38,370252,370253,2024-06-18T14:11:51.963Z,370290.42,l-OWYBtB7v,incremental,anketa,6645cf40bc81b65c5faccf1d,participant,hcpibd0dlxkh8ipg,,,mousedown,,"Koliko čega Luka je zaboravio, on mi je posudio?","Luka je zaboravio, koliko mi je novca posudio.",ai,,,28,,,
,Sequence,flow.Sequence,2_6,,,,,,completion,13422.659999999974,356799,356793.9,356829.34,370252,370255,2024-06-18T14:11:51.964Z,370290.42,l-OWYBtB7v,incremental,anketa,6645cf40bc81b65c5faccf1d,participant,hcpibd0dlxkh8ipg,,,,,"Koliko čega Luka je zaboravio, on mi je posudio?","Luka je zaboravio, koliko mi je novca posudio.",ai,,,28,,,
,context,canvas.Screen,2_7_0_0,,,,,,response,6806.580000000016,370256,370251.54,370290.42,377097,377100,2024-06-18T14:11:58.809Z,377287.28,l-OWYBtB7v,incremental,anketa,6645cf40bc81b65c5faccf1d,participant,hcpibd0dlxkh8ipg,,,click,,Čije sam cvijeće izašao iz kuće i zaboravio zaliti?,Izašao sam iz kuće i zaboravio zaliti majkino cvijeće.,csi,0,0,4,ZALITI MAJKINO CVIJEĆE; ZALITI MAMINO CVIJECE; ZALITI CVIJECE MAJKE; ZALITI MAJČINO CVIJEĆE; ZALITI CVIJEĆE MAJKE; ZALITI MAJKINO CVIJECE; MAJKINO CVIJEĆE ZALITI; MAJKINO CVIJECE ZALITI; ZALITI CVIJECE; ZALITI CVIJEĆE; ZALITI CVJEĆE; ZALITI CVJECE,Što sam zaboravio napraviti?,
,Timer frame,html.Frame,2_7_0,,,,,,,6810.580000000016,370255,370251.54,370290.42,377101,377102,2024-06-18T14:11:58.810Z,377287.28,l-OWYBtB7v,incremental,anketa,6645cf40bc81b65c5faccf1d,participant,hcpibd0dlxkh8ipg,,,,,Čije sam cvijeće izašao iz kuće i zaboravio zaliti?,Izašao sam iz kuće i zaboravio zaliti majkino cvijeće.,csi,0,0,4,ZALITI MAJKINO CVIJEĆE; ZALITI MAMINO CVIJECE; ZALITI CVIJECE MAJKE; ZALITI MAJČINO CVIJEĆE; ZALITI CVIJEĆE MAJKE; ZALITI MAJKINO CVIJECE; MAJKINO CVIJEĆE ZALITI; MAJKINO CVIJECE ZALITI; ZALITI CVIJECE; ZALITI CVIJEĆE; ZALITI CVJEĆE; ZALITI CVJECE,Što sam zaboravio napraviti?,
,stimulus,canvas.Screen,2_7_1_0,,,,,,response,9266.719999999972,377103,377095.26,377287.28,386554,386557,2024-06-18T14:12:08.266Z,386773.46,l-OWYBtB7v,incremental,anketa,6645cf40bc81b65c5faccf1d,participant,hcpibd0dlxkh8ipg,,3,click @3,,Čije sam cvijeće izašao iz kuće i zaboravio zaliti?,Izašao sam iz kuće i zaboravio zaliti majkino cvijeće.,csi,0,0,4,ZALITI MAJKINO CVIJEĆE; ZALITI MAMINO CVIJECE; ZALITI CVIJECE MAJKE; ZALITI MAJČINO CVIJEĆE; ZALITI CVIJEĆE MAJKE; ZALITI MAJKINO CVIJECE; MAJKINO CVIJEĆE ZALITI; MAJKINO CVIJECE ZALITI; ZALITI CVIJECE; ZALITI CVIJEĆE; ZALITI CVJEĆE; ZALITI CVJECE,Što sam zaboravio napraviti?,
,Timer frame,html.Frame,2_7_1,,,,,,,9269.719999999972,377102,377095.26,377287.28,386557,386557,2024-06-18T14:12:08.267Z,386773.46,l-OWYBtB7v,incremental,anketa,6645cf40bc81b65c5faccf1d,participant,hcpibd0dlxkh8ipg,,,,,Čije sam cvijeće izašao iz kuće i zaboravio zaliti?,Izašao sam iz kuće i zaboravio zaliti majkino cvijeće.,csi,0,0,4,ZALITI MAJKINO CVIJEĆE; ZALITI MAMINO CVIJECE; ZALITI CVIJECE MAJKE; ZALITI MAJČINO CVIJEĆE; ZALITI CVIJEĆE MAJKE; ZALITI MAJKINO CVIJECE; MAJKINO CVIJEĆE ZALITI; MAJKINO CVIJECE ZALITI; ZALITI CVIJECE; ZALITI CVIJEĆE; ZALITI CVJEĆE; ZALITI CVJECE,Što sam zaboravio napraviti?,
,Spremanje,canvas.Screen,2_7_2,,,,,,response,4158.539999999979,386558,386551.86,386773.46,390932,390941,2024-06-18T14:12:12.650Z,391029.06,l-OWYBtB7v,incremental,anketa,6645cf40bc81b65c5faccf1d,participant,hcpibd0dlxkh8ipg,,,mousedown,,Čije sam cvijeće izašao iz kuće i zaboravio zaliti?,Izašao sam iz kuće i zaboravio zaliti majkino cvijeće.,csi,0,0,4,ZALITI MAJKINO CVIJEĆE; ZALITI MAMINO CVIJECE; ZALITI CVIJECE MAJKE; ZALITI MAJČINO CVIJEĆE; ZALITI CVIJEĆE MAJKE; ZALITI MAJKINO CVIJECE; MAJKINO CVIJEĆE ZALITI; MAJKINO CVIJECE ZALITI; ZALITI CVIJECE; ZALITI CVIJEĆE; ZALITI CVJEĆE; ZALITI CVJECE,Što sam zaboravio napraviti?,
,Question form,html.Form,2_7_3,,,,,,form submission,15951.940000000002,390947,390931.24,391029.06,406981,406988,2024-06-18T14:12:28.697Z,407049.96,l-OWYBtB7v,incremental,anketa,6645cf40bc81b65c5faccf1d,participant,hcpibd0dlxkh8ipg,,,,Zaliti cvijeće,Čije sam cvijeće izašao iz kuće i zaboravio zaliti?,Izašao sam iz kuće i zaboravio zaliti majkino cvijeće.,csi,0,0,4,ZALITI MAJKINO CVIJEĆE; ZALITI MAMINO CVIJECE; ZALITI CVIJECE MAJKE; ZALITI MAJČINO CVIJEĆE; ZALITI CVIJEĆE MAJKE; ZALITI MAJKINO CVIJECE; MAJKINO CVIJEĆE ZALITI; MAJKINO CVIJECE ZALITI; ZALITI CVIJECE; ZALITI CVIJEĆE; ZALITI CVJEĆE; ZALITI CVJECE,Što sam zaboravio napraviti?,
,Answer indication,canvas.Screen,2_7_4,,,,,,response,2307.039999999979,407014,407027.78,407049.96,409357,409358,2024-06-18T14:12:31.068Z,409436.64,l-OWYBtB7v,incremental,anketa,6645cf40bc81b65c5faccf1d,participant,hcpibd0dlxkh8ipg,,,mousedown,,Čije sam cvijeće izašao iz kuće i zaboravio zaliti?,Izašao sam iz kuće i zaboravio zaliti majkino cvijeće.,csi,0,0,4,ZALITI MAJKINO CVIJEĆE; ZALITI MAMINO CVIJECE; ZALITI CVIJECE MAJKE; ZALITI MAJČINO CVIJEĆE; ZALITI CVIJEĆE MAJKE; ZALITI MAJKINO CVIJECE; MAJKINO CVIJEĆE ZALITI; MAJKINO CVIJECE ZALITI; ZALITI CVIJECE; ZALITI CVIJEĆE; ZALITI CVJEĆE; ZALITI CVJECE,Što sam zaboravio napraviti?,
,inter-stimulus,canvas.Screen,2_7_5,,,,,,response,992.359999999986,409359,409359.08,409436.64,410429,410430,2024-06-18T14:12:32.140Z,410491.76,l-OWYBtB7v,incremental,anketa,6645cf40bc81b65c5faccf1d,participant,hcpibd0dlxkh8ipg,,,mousedown,,Čije sam cvijeće izašao iz kuće i zaboravio zaliti?,Izašao sam iz kuće i zaboravio zaliti majkino cvijeće.,csi,0,0,4,ZALITI MAJKINO CVIJEĆE; ZALITI MAMINO CVIJECE; ZALITI CVIJECE MAJKE; ZALITI MAJČINO CVIJEĆE; ZALITI CVIJEĆE MAJKE; ZALITI MAJKINO CVIJECE; MAJKINO CVIJEĆE ZALITI; MAJKINO CVIJECE ZALITI; ZALITI CVIJECE; ZALITI CVIJEĆE; ZALITI CVJEĆE; ZALITI CVJECE,Što sam zaboravio napraviti?,
,Sequence,flow.Sequence,2_7,,,,,,completion,40138.580000000016,370255,370251.54,370290.42,410429,410431,2024-06-18T14:12:32.141Z,410491.76,l-OWYBtB7v,incremental,anketa,6645cf40bc81b65c5faccf1d,participant,hcpibd0dlxkh8ipg,,,,,Čije sam cvijeće izašao iz kuće i zaboravio zaliti?,Izašao sam iz kuće i zaboravio zaliti majkino cvijeće.,csi,0,0,4,ZALITI MAJKINO CVIJEĆE; ZALITI MAMINO CVIJECE; ZALITI CVIJECE MAJKE; ZALITI MAJČINO CVIJEĆE; ZALITI CVIJEĆE MAJKE; ZALITI MAJKINO CVIJECE; MAJKINO CVIJEĆE ZALITI; MAJKINO CVIJECE ZALITI; ZALITI CVIJECE; ZALITI CVIJEĆE; ZALITI CVJEĆE; ZALITI CVJECE,Što sam zaboravio napraviti?,
,context,canvas.Screen,2_8_0_0,,,,,,response,4526.239999999991,410433,410429.06,410491.76,415018,415021,2024-06-18T14:12:36.730Z,415207.72,l-OWYBtB7v,incremental,anketa,6645cf40bc81b65c5faccf1d,participant,hcpibd0dlxkh8ipg,,,click,,Kakva je kraj mene biciklom prošla djevojka?,Kraj mene je biciklom prošla vrlo lijepa djevojka.,ai,,,27,,,
,Timer frame,html.Frame,2_8_0,,,,,,,4529.239999999991,410432,410429.06,410491.76,415021,415022,2024-06-18T14:12:36.731Z,415207.72,l-OWYBtB7v,incremental,anketa,6645cf40bc81b65c5faccf1d,participant,hcpibd0dlxkh8ipg,,,,,Kakva je kraj mene biciklom prošla djevojka?,Kraj mene je biciklom prošla vrlo lijepa djevojka.,ai,,,27,,,
,stimulus,canvas.Screen,2_8_1_0,,,,,,response,6469.280000000028,415024,415016.6,415207.72,421677,421680,2024-06-18T14:12:43.389Z,421950.62,l-OWYBtB7v,incremental,anketa,6645cf40bc81b65c5faccf1d,participant,hcpibd0dlxkh8ipg,,5,click @5,,Kakva je kraj mene biciklom prošla djevojka?,Kraj mene je biciklom prošla vrlo lijepa djevojka.,ai,,,27,,,
,Timer frame,html.Frame,2_8_1,,,,,,,6473.280000000028,415023,415016.6,415207.72,421681,421682,2024-06-18T14:12:43.391Z,421950.62,l-OWYBtB7v,incremental,anketa,6645cf40bc81b65c5faccf1d,participant,hcpibd0dlxkh8ipg,,,,,Kakva je kraj mene biciklom prošla djevojka?,Kraj mene je biciklom prošla vrlo lijepa djevojka.,ai,,,27,,,
,Spremanje,canvas.Screen,2_8_2,,,,,,skipped,,421682,,,421681,421683,2024-06-18T14:12:43.392Z,421950.62,l-OWYBtB7v,incremental,anketa,6645cf40bc81b65c5faccf1d,participant,hcpibd0dlxkh8ipg,,,,,Kakva je kraj mene biciklom prošla djevojka?,Kraj mene je biciklom prošla vrlo lijepa djevojka.,ai,,,27,,,
,Question form,html.Form,2_8_3,,,,,,skipped,,421683,,,421681,421685,2024-06-18T14:12:43.393Z,421950.62,l-OWYBtB7v,incremental,anketa,6645cf40bc81b65c5faccf1d,participant,hcpibd0dlxkh8ipg,,,,,Kakva je kraj mene biciklom prošla djevojka?,Kraj mene je biciklom prošla vrlo lijepa djevojka.,ai,,,27,,,
,Answer indication,canvas.Screen,2_8_4,,,,,,skipped,,421705,,,421681,421706,2024-06-18T14:12:43.415Z,421950.62,l-OWYBtB7v,incremental,anketa,6645cf40bc81b65c5faccf1d,participant,hcpibd0dlxkh8ipg,,,,,Kakva je kraj mene biciklom prošla djevojka?,Kraj mene je biciklom prošla vrlo lijepa djevojka.,ai,,,27,,,
,inter-stimulus,canvas.Screen,2_8_5,,,,,,response,964.3800000000047,421706,421676.04,421950.62,422915,422920,2024-06-18T14:12:44.629Z,423186.72,l-OWYBtB7v,incremental,anketa,6645cf40bc81b65c5faccf1d,participant,hcpibd0dlxkh8ipg,,,mousedown,,Kakva je kraj mene biciklom prošla djevojka?,Kraj mene je biciklom prošla vrlo lijepa djevojka.,ai,,,27,,,
,Sequence,flow.Sequence,2_8,,,,,,completion,12423.23999999999,410432,410429.06,410491.76,422915,422930,2024-06-18T14:12:44.639Z,423186.72,l-OWYBtB7v,incremental,anketa,6645cf40bc81b65c5faccf1d,participant,hcpibd0dlxkh8ipg,,,,,Kakva je kraj mene biciklom prošla djevojka?,Kraj mene je biciklom prošla vrlo lijepa djevojka.,ai,,,27,,,
,context,canvas.Screen,2_9_0_0,,,,,,response,3307.280000000028,422932,422915.28,423186.72,426494,426506,2024-06-18T14:12:48.215Z,426618.64,l-OWYBtB7v,incremental,anketa,6645cf40bc81b65c5faccf1d,participant,hcpibd0dlxkh8ipg,,,click,,Što želiš da pronaći nije bilo teško?,Pronaći apoteku nije bilo teško.,si,,,14,,,2305
,Timer frame,html.Frame,2_9_0,,,,,,,3320.280000000028,422932,422915.28,423186.72,426507,426509,2024-06-18T14:12:48.217Z,426618.64,l-OWYBtB7v,incremental,anketa,6645cf40bc81b65c5faccf1d,participant,hcpibd0dlxkh8ipg,,,,,Što želiš da pronaći nije bilo teško?,Pronaći apoteku nije bilo teško.,si,,,14,,,2305
,stimulus,canvas.Screen,2_9_1_0,,,,,,response,5640.359999999986,426511,426482.98,426618.64,432259,432289,2024-06-18T14:12:53.999Z,432744.36,l-OWYBtB7v,incremental,anketa,6645cf40bc81b65c5faccf1d,participant,hcpibd0dlxkh8ipg,,3,click @3,,Što želiš da pronaći nije bilo teško?,Pronaći apoteku nije bilo teško.,si,,,14,,,2305
,Timer frame,html.Frame,2_9_1,,,,,,,5672.359999999986,426510,426482.98,426618.64,432291,432296,2024-06-18T14:12:54.005Z,432744.36,l-OWYBtB7v,incremental,anketa,6645cf40bc81b65c5faccf1d,participant,hcpibd0dlxkh8ipg,,,,,Što želiš da pronaći nije bilo teško?,Pronaći apoteku nije bilo teško.,si,,,14,,,2305
,Spremanje,canvas.Screen,2_9_2,,,,,,skipped,,432297,,,432291,432335,2024-06-18T14:12:54.044Z,432744.36,l-OWYBtB7v,incremental,anketa,6645cf40bc81b65c5faccf1d,participant,hcpibd0dlxkh8ipg,,,,,Što želiš da pronaći nije bilo teško?,Pronaći apoteku nije bilo teško.,si,,,14,,,2305
,Question form,html.Form,2_9_3,,,,,,skipped,,432336,,,432291,432337,2024-06-18T14:12:54.046Z,432744.36,l-OWYBtB7v,incremental,anketa,6645cf40bc81b65c5faccf1d,participant,hcpibd0dlxkh8ipg,,,,,Što želiš da pronaći nije bilo teško?,Pronaći apoteku nije bilo teško.,si,,,14,,,2305
,Answer indication,canvas.Screen,2_9_4,,,,,,skipped,,432436,,,432291,432437,2024-06-18T14:12:54.146Z,432744.36,l-OWYBtB7v,incremental,anketa,6645cf40bc81b65c5faccf1d,participant,hcpibd0dlxkh8ipg,,,,,Što želiš da pronaći nije bilo teško?,Pronaći apoteku nije bilo teško.,si,,,14,,,2305
,inter-stimulus,canvas.Screen,2_9_5,,,,,,response,876.640000000014,432439,432243,432744.36,433621,433625,2024-06-18T14:12:55.334Z,433756.66,l-OWYBtB7v,incremental,anketa,6645cf40bc81b65c5faccf1d,participant,hcpibd0dlxkh8ipg,,,mousedown,,Što želiš da pronaći nije bilo teško?,Pronaći apoteku nije bilo teško.,si,,,14,,,2305
,Sequence,flow.Sequence,2_9,,,,,,completion,10434.280000000028,422931,422915.28,423186.72,433621,433627,2024-06-18T14:12:55.336Z,433756.66,l-OWYBtB7v,incremental,anketa,6645cf40bc81b65c5faccf1d,participant,hcpibd0dlxkh8ipg,,,,,Što želiš da pronaći nije bilo teško?,Pronaći apoteku nije bilo teško.,si,,,14,,,2305
,context,canvas.Screen,2_10_0_0,,,,,,response,5729.340000000026,433645,433620.62,433756.66,439486,439505,2024-06-18T14:13:01.214Z,439584.76,l-OWYBtB7v,incremental,anketa,6645cf40bc81b65c5faccf1d,participant,hcpibd0dlxkh8ipg,,,click,,Od čega je djed otišao u sanatorij odmarati?,Djed je otišao u sanatorij odmarati od gužve i buke..,ai,,26,30,,,
,Timer frame,html.Frame,2_10_0,,,,,,,5752.340000000026,433631,433620.62,433756.66,439509,439510,2024-06-18T14:13:01.218Z,439584.76,l-OWYBtB7v,incremental,anketa,6645cf40bc81b65c5faccf1d,participant,hcpibd0dlxkh8ipg,,,,,Od čega je djed otišao u sanatorij odmarati?,Djed je otišao u sanatorij odmarati od gužve i buke..,ai,,26,30,,,
,stimulus,canvas.Screen,2_10_1_0,,,,,,response,5538.239999999991,439513,439482.46,439584.76,445123,445127,2024-06-18T14:13:06.836Z,445311.34,l-OWYBtB7v,incremental,anketa,6645cf40bc81b65c5faccf1d,participant,hcpibd0dlxkh8ipg,,5,click @5,,Od čega je djed otišao u sanatorij odmarati?,Djed je otišao u sanatorij odmarati od gužve i buke..,ai,,26,30,,,
,Timer frame,html.Frame,2_10_1,,,,,,,5542.239999999991,439512,439482.46,439584.76,445127,445128,2024-06-18T14:13:06.837Z,445311.34,l-OWYBtB7v,incremental,anketa,6645cf40bc81b65c5faccf1d,participant,hcpibd0dlxkh8ipg,,,,,Od čega je djed otišao u sanatorij odmarati?,Djed je otišao u sanatorij odmarati od gužve i buke..,ai,,26,30,,,
,Spremanje,canvas.Screen,2_10_2,,,,,,skipped,,445128,,,445127,445129,2024-06-18T14:13:06.838Z,445311.34,l-OWYBtB7v,incremental,anketa,6645cf40bc81b65c5faccf1d,participant,hcpibd0dlxkh8ipg,,,,,Od čega je djed otišao u sanatorij odmarati?,Djed je otišao u sanatorij odmarati od gužve i buke..,ai,,26,30,,,
,Question form,html.Form,2_10_3,,,,,,skipped,,445130,,,445127,445130,2024-06-18T14:13:06.839Z,445311.34,l-OWYBtB7v,incremental,anketa,6645cf40bc81b65c5faccf1d,participant,hcpibd0dlxkh8ipg,,,,,Od čega je djed otišao u sanatorij odmarati?,Djed je otišao u sanatorij odmarati od gužve i buke..,ai,,26,30,,,
,Answer indication,canvas.Screen,2_10_4,,,,,,skipped,,445166,,,445127,445166,2024-06-18T14:13:06.875Z,445311.34,l-OWYBtB7v,incremental,anketa,6645cf40bc81b65c5faccf1d,participant,hcpibd0dlxkh8ipg,,,,,Od čega je djed otišao u sanatorij odmarati?,Djed je otišao u sanatorij odmarati od gužve i buke..,ai,,26,30,,,
,inter-stimulus,canvas.Screen,2_10_5,,,,,,response,722.6599999999744,445168,445121.06,445311.34,446034,446037,2024-06-18T14:13:07.746Z,446256.3,l-OWYBtB7v,incremental,anketa,6645cf40bc81b65c5faccf1d,participant,hcpibd0dlxkh8ipg,,,mousedown,,Od čega je djed otišao u sanatorij odmarati?,Djed je otišao u sanatorij odmarati od gužve i buke..,ai,,26,30,,,
,Sequence,flow.Sequence,2_10,,,,,,completion,12277.340000000026,433628,433620.62,433756.66,446034,446040,2024-06-18T14:13:07.748Z,446256.3,l-OWYBtB7v,incremental,anketa,6645cf40bc81b65c5faccf1d,participant,hcpibd0dlxkh8ipg,,,,,Od čega je djed otišao u sanatorij odmarati?,Djed je otišao u sanatorij odmarati od gužve i buke..,ai,,26,30,,,
,context,canvas.Screen,2_11_0_0,,,,,,response,1836.7000000000116,446043,446032.98,446256.3,448093,448109,2024-06-18T14:13:09.818Z,448431.64,l-OWYBtB7v,incremental,anketa,6645cf40bc81b65c5faccf1d,participant,hcpibd0dlxkh8ipg,,,click,,"Što je on plakao, čitajući?","On je plakao, čitajući knjigu.",ai,,,22,,,
,Timer frame,html.Frame,2_11_0,,,,,,,1854.7000000000116,446041,446032.98,446256.3,448111,448115,2024-06-18T14:13:09.823Z,448431.64,l-OWYBtB7v,incremental,anketa,6645cf40bc81b65c5faccf1d,participant,hcpibd0dlxkh8ipg,,,,,"Što je on plakao, čitajući?","On je plakao, čitajući knjigu.",ai,,,22,,,
,stimulus,canvas.Screen,2_11_1_0,,,,,,response,10002.359999999986,448123,448142.78,448431.64,458434,458554,2024-06-18T14:13:20.263Z,459252.34,l-OWYBtB7v,incremental,anketa,6645cf40bc81b65c5faccf1d,participant,hcpibd0dlxkh8ipg,,2,click @2,,"Što je on plakao, čitajući?","On je plakao, čitajući knjigu.",ai,,,22,,,
,Timer frame,html.Frame,2_11_1,,,,,,,10129.359999999986,448119,448142.78,448431.64,458561,458562,2024-06-18T14:13:20.271Z,459252.34,l-OWYBtB7v,incremental,anketa,6645cf40bc81b65c5faccf1d,participant,hcpibd0dlxkh8ipg,,,,,"Što je on plakao, čitajući?","On je plakao, čitajući knjigu.",ai,,,22,,,
,Spremanje,canvas.Screen,2_11_2,,,,,,skipped,,458564,,,458561,458566,2024-06-18T14:13:20.275Z,459252.34,l-OWYBtB7v,incremental,anketa,6645cf40bc81b65c5faccf1d,participant,hcpibd0dlxkh8ipg,,,,,"Što je on plakao, čitajući?","On je plakao, čitajući knjigu.",ai,,,22,,,
,Question form,html.Form,2_11_3,,,,,,skipped,,458567,,,458561,458568,2024-06-18T14:13:20.278Z,459252.34,l-OWYBtB7v,incremental,anketa,6645cf40bc81b65c5faccf1d,participant,hcpibd0dlxkh8ipg,,,,,"Što je on plakao, čitajući?","On je plakao, čitajući knjigu.",ai,,,22,,,
,Answer indication,canvas.Screen,2_11_4,,,,,,skipped,,458644,,,458561,458644,2024-06-18T14:13:20.354Z,459252.34,l-OWYBtB7v,incremental,anketa,6645cf40bc81b65c5faccf1d,participant,hcpibd0dlxkh8ipg,,,,,"Što je on plakao, čitajući?","On je plakao, čitajući knjigu.",ai,,,22,,,
,inter-stimulus,canvas.Screen,2_11_5,,,,,,response,1825.6599999999744,458645,458433.58,459252.34,461078,461164,2024-06-18T14:13:22.872Z,461718.94,l-OWYBtB7v,incremental,anketa,6645cf40bc81b65c5faccf1d,participant,hcpibd0dlxkh8ipg,,,mousedown,,"Što je on plakao, čitajući?","On je plakao, čitajući knjigu.",ai,,,22,,,
,Sequence,flow.Sequence,2_11,,,,,,completion,14821.700000000012,446041,446032.98,446256.3,461078,461168,2024-06-18T14:13:22.877Z,461718.94,l-OWYBtB7v,incremental,anketa,6645cf40bc81b65c5faccf1d,participant,hcpibd0dlxkh8ipg,,,,,"Što je on plakao, čitajući?","On je plakao, čitajući knjigu.",ai,,,22,,,
,context,canvas.Screen,2_12_0_0,,,,,,response,5686.059999999998,461190,461075.68,461718.94,467405,467497,2024-06-18T14:13:29.207Z,468398.38,l-OWYBtB7v,incremental,anketa,6645cf40bc81b65c5faccf1d,participant,hcpibd0dlxkh8ipg,,,click,,Što je Inna tri sata pročitala?,Inna je tri sata čitala zanimljiv članak.,nf,,,39,,,
,Timer frame,html.Frame,2_12_0,,,,,,,5785.059999999998,461169,461075.68,461718.94,467504,467507,2024-06-18T14:13:29.215Z,468398.38,l-OWYBtB7v,incremental,anketa,6645cf40bc81b65c5faccf1d,participant,hcpibd0dlxkh8ipg,,,,,Što je Inna tri sata pročitala?,Inna je tri sata čitala zanimljiv članak.,nf,,,39,,,
,stimulus,canvas.Screen,2_12_1_0,,,,,,timeout,25999.70000000001,467538,467364.28,468398.38,492559,493078,2024-06-18T14:13:54.799Z,494398.08,l-OWYBtB7v,incremental,anketa,6645cf40bc81b65c5faccf1d,participant,hcpibd0dlxkh8ipg,,,,,Što je Inna tri sata pročitala?,Inna je tri sata čitala zanimljiv članak.,nf,,,39,,,
,Timer frame,html.Frame,2_12_1,,,,,,,24763.619999999995,467517,467364.28,468398.38,493162,493169,2024-06-18T14:13:54.878Z,500897.06,l-OWYBtB7v,incremental,anketa,6645cf40bc81b65c5faccf1d,participant,hcpibd0dlxkh8ipg,,,,,Što je Inna tri sata pročitala?,Inna je tri sata čitala zanimljiv članak.,nf,,,39,,,
,Spremanje,canvas.Screen,2_12_2,,,,,,skipped,,493173,,,493162,493174,2024-06-18T14:13:54.885Z,500897.06,l-OWYBtB7v,incremental,anketa,6645cf40bc81b65c5faccf1d,participant,hcpibd0dlxkh8ipg,,,,,Što je Inna tri sata pročitala?,Inna je tri sata čitala zanimljiv članak.,nf,,,39,,,
,Question form,html.Form,2_12_3,,,,,,skipped,,493177,,,493162,493186,2024-06-18T14:13:54.894Z,500897.06,l-OWYBtB7v,incremental,anketa,6645cf40bc81b65c5faccf1d,participant,hcpibd0dlxkh8ipg,,,,,Što je Inna tri sata pročitala?,Inna je tri sata čitala zanimljiv članak.,nf,,,39,,,
,Answer indication,canvas.Screen,2_12_4,,,,,,skipped,,494192,,,493162,494230,2024-06-18T14:13:55.941Z,500897.06,l-OWYBtB7v,incremental,anketa,6645cf40bc81b65c5faccf1d,participant,hcpibd0dlxkh8ipg,,,,,Što je Inna tri sata pročitala?,Inna je tri sata čitala zanimljiv članak.,nf,,,39,,,