meta,sender,sender_type,sender_id,age,education,croatian-knowledge,occupation,,ended_on,duration,time_run,time_render,time_show,time_end,time_commit,timestamp,time_switch,openLabId,type,task,project,status,code,confirmationCode,response,response_action,answer_true,stimulus,context,island_type,transfer_s,transfer_c,id,right_answer,question,change_date
"{""labjs_version"":""20.2.4"",""labjs_build"":{""flavor"":""production"",""commit"":""f5b4a49f956347addd546a832a3327688c2c0fef""},""location"":""https://open-lab.online/test/anketa/66a915e7e3bab725623a4132"",""userAgent"":""Mozilla/5.0 (Windows NT 10.0; Win64; x64) AppleWebKit/537.36 (KHTML, like Gecko) Chrome/127.0.0.0 Safari/537.36"",""platform"":""Win32"",""language"":""hr-HR"",""locale"":""en-US"",""timeZone"":""Europe/Zagreb"",""timezoneOffset"":-120,""screen_width"":1536,""screen_height"":864,""scroll_width"":1536,""scroll_height"":655,""window_innerWidth"":1536,""window_innerHeight"":703,""devicePixelRatio"":1.25}",Demography form,html.Form,0,27,master,mother-tongue,Učiteljica hrvatskog jezika,,form submission,27764.400000047684,3277,3298.332,3331.8,31096.200000047684,31097,2024-07-30T16:34:14.690Z,31114.9,o0Bxo-wFMk,incremental,anketa,6645cf40bc81b65c5faccf1d,participant,hcpib7dulz8n0n3b,918515,,,,,,,,,,,,
,context,canvas.Screen,1_0,,,,,,response,5582.500000095366,31097.5,31098.728,31114.9,36697.40000009537,36698.700000047684,2024-07-30T16:34:20.291Z,36714.8,o0Bxo-wFMk,incremental,anketa,6645cf40bc81b65c5faccf1d,participant,hcpib7dulz8n0n3b,,,click,,,,,,,,,,
,stimulus,canvas.Screen,1_1,,,,,,response,11296.499999952313,36698.90000009537,36698.732,36714.8,48011.299999952316,48012.299999952316,2024-07-30T16:34:31.605Z,48014.7,o0Bxo-wFMk,incremental,anketa,6645cf40bc81b65c5faccf1d,participant,hcpib7dulz8n0n3b,,4,click @4,,,,,,,,,,
,inter-stimulus,canvas.Screen,1_2,,,,,,response,2382.7000000953703,48012.299999952316,47998.7,48014.7,50397.40000009537,50399.40000009537,2024-07-30T16:34:33.992Z,50415.346,o0Bxo-wFMk,incremental,anketa,6645cf40bc81b65c5faccf1d,participant,hcpib7dulz8n0n3b,,,mousedown,,,,,,,,,,
,context,canvas.Screen,1_3,,,,,,response,2510.1540000000023,50399.60000014305,50415.346,50415.346,52925.5,52926.299999952316,2024-07-30T16:34:36.519Z,52931.3,o0Bxo-wFMk,incremental,anketa,6645cf40bc81b65c5faccf1d,participant,hcpib7dulz8n0n3b,,,click,,,,,,,,,,
,stimulus,canvas.Screen,1_4,,,,,,response,5819.499999952313,52926.5,52915.2,52931.3,58750.799999952316,58751.799999952316,2024-07-30T16:34:42.344Z,58764.7,o0Bxo-wFMk,incremental,anketa,6645cf40bc81b65c5faccf1d,participant,hcpib7dulz8n0n3b,,1,click @1,,,,,,,,,,
,inter-stimulus,canvas.Screen,1_5,,,,,,response,3698.599999952319,58751.90000009537,58748.026,58764.7,62463.299999952316,62464.90000009537,2024-07-30T16:34:46.057Z,62481.3,o0Bxo-wFMk,incremental,anketa,6645cf40bc81b65c5faccf1d,participant,hcpib7dulz8n0n3b,,,mousedown,,,,,,,,,,
,context,canvas.Screen,1_6,,,,,,response,4322.1000000953645,62465.299999952316,62465.096,62481.3,66803.40000009537,66804.29999995232,2024-07-30T16:34:50.397Z,66814.65,o0Bxo-wFMk,incremental,anketa,6645cf40bc81b65c5faccf1d,participant,hcpib7dulz8n0n3b,,,click,,,,,,,,,,
,stimulus,canvas.Screen,1_7_0,,,,,,response,4106.250000095373,66806.60000014305,66814.65,66814.65,70920.90000009537,70924,2024-07-30T16:34:54.517Z,70947.9,o0Bxo-wFMk,incremental,anketa,6645cf40bc81b65c5faccf1d,participant,hcpib7dulz8n0n3b,,7,click @7,,,,,,,,,,
,Timer frame,html.Frame,1_7,,,,,,,4109.450000143057,66804.40000009537,66814.65,66814.65,70924.10000014305,70924.70000004768,2024-07-30T16:34:54.517Z,70947.9,o0Bxo-wFMk,incremental,anketa,6645cf40bc81b65c5faccf1d,participant,hcpib7dulz8n0n3b,,,,,,,,,,,,,
,Screen,canvas.Screen,1_8,,,,,,response,4050.200000143057,70924.90000009537,70931.762,70947.9,74998.10000014305,74999.90000009537,2024-07-30T16:34:58.592Z,75014.6,o0Bxo-wFMk,incremental,anketa,6645cf40bc81b65c5faccf1d,participant,hcpib7dulz8n0n3b,,,mousedown,,,,,,,,,,
,Question form,html.Form,1_9,,,,,,form submission,4152.500000143045,75000.10000014305,74998.07,75014.6,79167.10000014305,79167.29999995232,2024-07-30T16:35:02.760Z,79181.2,o0Bxo-wFMk,incremental,anketa,6645cf40bc81b65c5faccf1d,participant,hcpib7dulz8n0n3b,,,,zrele,,,,,,,,,
,Screen,canvas.Screen,1_10,,,,,,response,1528.0999999523192,79176.29999995232,79165.1,79181.2,80709.29999995232,80711.29999995232,2024-07-30T16:35:04.304Z,80714.6,o0Bxo-wFMk,incremental,anketa,6645cf40bc81b65c5faccf1d,participant,hcpib7dulz8n0n3b,,,mousedown,,,,,,,,,,
,inter-stimulus,canvas.Screen,1_11,,,,,,response,1767.100000047678,80711.60000014305,80698.3,80714.6,82481.70000004768,82483.60000014305,2024-07-30T16:35:06.076Z,82497.8,o0Bxo-wFMk,incremental,anketa,6645cf40bc81b65c5faccf1d,participant,hcpib7dulz8n0n3b,,,mousedown,,,,,,,,,,
,First stimuli,flow.Sequence,1,,,,,,completion,51366.80000004768,31097.5,31098.728,31114.9,82481.70000004768,82487.70000004768,2024-07-30T16:35:06.080Z,82497.8,o0Bxo-wFMk,incremental,anketa,6645cf40bc81b65c5faccf1d,participant,hcpib7dulz8n0n3b,,,,,,,,,,,,,
,context,canvas.Screen,2_0_0_0,,,,,,response,4493.1000000953645,82488.29999995232,82481.742,82497.8,86990.90000009537,86991.90000009537,2024-07-30T16:35:10.584Z,86997.8,o0Bxo-wFMk,incremental,anketa,6645cf40bc81b65c5faccf1d,participant,hcpib7dulz8n0n3b,,,click,,Tko ono da je prodao svoj stan za toliki novac nevjerojatno je??,Ono da je Goran prodao svoj stan za toliki novac nevjerojatno je..,si,30,32,17,,,
,Timer frame,html.Frame,2_0_0,,,,,,,4494.199999999997,82488.10000014305,82481.742,82497.8,86992,86992.60000014305,2024-07-30T16:35:10.585Z,86997.8,o0Bxo-wFMk,incremental,anketa,6645cf40bc81b65c5faccf1d,participant,hcpib7dulz8n0n3b,,,,,Tko ono da je prodao svoj stan za toliki novac nevjerojatno je??,Ono da je Goran prodao svoj stan za toliki novac nevjerojatno je..,si,30,32,17,,,
,stimulus,canvas.Screen,2_0_1_0,,,,,,response,2684.9999999523134,86992.79999995232,86981.688,86997.8,89682.79999995232,89683.70000004768,2024-07-30T16:35:13.276Z,89697.9,o0Bxo-wFMk,incremental,anketa,6645cf40bc81b65c5faccf1d,participant,hcpib7dulz8n0n3b,,3,click @3,,Tko ono da je prodao svoj stan za toliki novac nevjerojatno je??,Ono da je Goran prodao svoj stan za toliki novac nevjerojatno je..,si,30,32,17,,,
,Timer frame,html.Frame,2_0_1,,,,,,,2685.9999999523134,86992.70000004768,86981.688,86997.8,89683.79999995232,89683.90000009537,2024-07-30T16:35:13.276Z,89697.9,o0Bxo-wFMk,incremental,anketa,6645cf40bc81b65c5faccf1d,participant,hcpib7dulz8n0n3b,,,,,Tko ono da je prodao svoj stan za toliki novac nevjerojatno je??,Ono da je Goran prodao svoj stan za toliki novac nevjerojatno je..,si,30,32,17,,,
,Spremanje,canvas.Screen,2_0_2,,,,,,skipped,,89684,,,89683.79999995232,89684.10000014305,2024-07-30T16:35:13.277Z,89697.9,o0Bxo-wFMk,incremental,anketa,6645cf40bc81b65c5faccf1d,participant,hcpib7dulz8n0n3b,,,,,Tko ono da je prodao svoj stan za toliki novac nevjerojatno je??,Ono da je Goran prodao svoj stan za toliki novac nevjerojatno je..,si,30,32,17,,,
,Question form,html.Form,2_0_3,,,,,,skipped,,89684.20000004768,,,89683.79999995232,89684.29999995232,2024-07-30T16:35:13.277Z,89697.9,o0Bxo-wFMk,incremental,anketa,6645cf40bc81b65c5faccf1d,participant,hcpib7dulz8n0n3b,,,,,Tko ono da je prodao svoj stan za toliki novac nevjerojatno je??,Ono da je Goran prodao svoj stan za toliki novac nevjerojatno je..,si,30,32,17,,,
,Answer indication,canvas.Screen,2_0_4,,,,,,skipped,,89689.70000004768,,,89683.79999995232,89689.79999995232,2024-07-30T16:35:13.282Z,89697.9,o0Bxo-wFMk,incremental,anketa,6645cf40bc81b65c5faccf1d,participant,hcpib7dulz8n0n3b,,,,,Tko ono da je prodao svoj stan za toliki novac nevjerojatno je??,Ono da je Goran prodao svoj stan za toliki novac nevjerojatno je..,si,30,32,17,,,
,inter-stimulus,canvas.Screen,2_0_5,,,,,,response,1163.5000000953733,89689.90000009537,89681.2,89697.9,90861.40000009537,90862.60000014305,2024-07-30T16:35:14.455Z,90864.4,o0Bxo-wFMk,incremental,anketa,6645cf40bc81b65c5faccf1d,participant,hcpib7dulz8n0n3b,,,mousedown,,Tko ono da je prodao svoj stan za toliki novac nevjerojatno je??,Ono da je Goran prodao svoj stan za toliki novac nevjerojatno je..,si,30,32,17,,,
,Sequence,flow.Sequence,2_0,,,,,,completion,8363.600000095365,82488,82481.742,82497.8,90861.40000009537,90862.70000004768,2024-07-30T16:35:14.455Z,90864.4,o0Bxo-wFMk,incremental,anketa,6645cf40bc81b65c5faccf1d,participant,hcpib7dulz8n0n3b,,,,,Tko ono da je prodao svoj stan za toliki novac nevjerojatno je??,Ono da je Goran prodao svoj stan za toliki novac nevjerojatno je..,si,30,32,17,,,
,context,canvas.Screen,2_1_0_0,,,,,,response,4222.500000095373,90863,90847.826,90864.4,95086.90000009537,95087.70000004768,2024-07-30T16:35:18.680Z,95097.7,o0Bxo-wFMk,incremental,anketa,6645cf40bc81b65c5faccf1d,participant,hcpib7dulz8n0n3b,,,click,,"Oni su se svađali navečer, ali ujutro su sve pritužbe već bile zaboravljene..","Navečer su se svađali, ali ujutro su sve pritužbe već bile zaboravljene..",gf,44,40,48,,,
,Timer frame,html.Frame,2_1_0,,,,,,,4223.399999952322,90862.90000009537,90847.826,90864.4,95087.79999995232,95088,2024-07-30T16:35:18.681Z,95097.7,o0Bxo-wFMk,incremental,anketa,6645cf40bc81b65c5faccf1d,participant,hcpib7dulz8n0n3b,,,,,"Oni su se svađali navečer, ali ujutro su sve pritužbe već bile zaboravljene..","Navečer su se svađali, ali ujutro su sve pritužbe već bile zaboravljene..",gf,44,40,48,,,
,stimulus,canvas.Screen,2_1_1_0,,,,,,response,1484.0000000476866,95088.20000004768,95081.142,95097.7,96581.70000004768,96583.10000014305,2024-07-30T16:35:20.176Z,96614.5,o0Bxo-wFMk,incremental,anketa,6645cf40bc81b65c5faccf1d,participant,hcpib7dulz8n0n3b,,6,click @6,,"Oni su se svađali navečer, ali ujutro su sve pritužbe već bile zaboravljene..","Navečer su se svađali, ali ujutro su sve pritužbe već bile zaboravljene..",gf,44,40,48,,,
,Timer frame,html.Frame,2_1_1,,,,,,,1485.5000000476866,95088,95081.142,95097.7,96583.20000004768,96583.29999995232,2024-07-30T16:35:20.176Z,96614.5,o0Bxo-wFMk,incremental,anketa,6645cf40bc81b65c5faccf1d,participant,hcpib7dulz8n0n3b,,,,,"Oni su se svađali navečer, ali ujutro su sve pritužbe već bile zaboravljene..","Navečer su se svađali, ali ujutro su sve pritužbe već bile zaboravljene..",gf,44,40,48,,,
,Spremanje,canvas.Screen,2_1_2,,,,,,skipped,,96583.29999995232,,,96583.20000004768,96583.40000009537,2024-07-30T16:35:20.176Z,96614.5,o0Bxo-wFMk,incremental,anketa,6645cf40bc81b65c5faccf1d,participant,hcpib7dulz8n0n3b,,,,,"Oni su se svađali navečer, ali ujutro su sve pritužbe već bile zaboravljene..","Navečer su se svađali, ali ujutro su sve pritužbe već bile zaboravljene..",gf,44,40,48,,,
,Question form,html.Form,2_1_3,,,,,,skipped,,96583.5,,,96583.20000004768,96583.60000014305,2024-07-30T16:35:20.176Z,96614.5,o0Bxo-wFMk,incremental,anketa,6645cf40bc81b65c5faccf1d,participant,hcpib7dulz8n0n3b,,,,,"Oni su se svađali navečer, ali ujutro su sve pritužbe već bile zaboravljene..","Navečer su se svađali, ali ujutro su sve pritužbe već bile zaboravljene..",gf,44,40,48,,,
,Answer indication,canvas.Screen,2_1_4,,,,,,skipped,,96586.20000004768,,,96583.20000004768,96586.29999995232,2024-07-30T16:35:20.179Z,96614.5,o0Bxo-wFMk,incremental,anketa,6645cf40bc81b65c5faccf1d,participant,hcpib7dulz8n0n3b,,,,,"Oni su se svađali navečer, ali ujutro su sve pritužbe već bile zaboravljene..","Navečer su se svađali, ali ujutro su sve pritužbe već bile zaboravljene..",gf,44,40,48,,,
,inter-stimulus,canvas.Screen,2_1_5,,,,,,response,1101.5,96586.40000009537,96597.844,96614.5,97716,97717.20000004768,2024-07-30T16:35:21.310Z,97731,o0Bxo-wFMk,incremental,anketa,6645cf40bc81b65c5faccf1d,participant,hcpib7dulz8n0n3b,,,mousedown,,"Oni su se svađali navečer, ali ujutro su sve pritužbe već bile zaboravljene..","Navečer su se svađali, ali ujutro su sve pritužbe već bile zaboravljene..",gf,44,40,48,,,
,Sequence,flow.Sequence,2_1,,,,,,completion,6851.600000000006,90862.90000009537,90847.826,90864.4,97716,97717.40000009537,2024-07-30T16:35:21.310Z,97731,o0Bxo-wFMk,incremental,anketa,6645cf40bc81b65c5faccf1d,participant,hcpib7dulz8n0n3b,,,,,"Oni su se svađali navečer, ali ujutro su sve pritužbe već bile zaboravljene..","Navečer su se svađali, ali ujutro su sve pritužbe već bile zaboravljene..",gf,44,40,48,,,
,context,canvas.Screen,2_2_0_0,,,,,,response,4384,97717.70000004768,97714.494,97731,102115,102115.90000009537,2024-07-30T16:35:25.709Z,102131,o0Bxo-wFMk,incremental,anketa,6645cf40bc81b65c5faccf1d,participant,hcpib7dulz8n0n3b,,,click,,Vidimo plažu od koje smo bili daleko.,Vidimo plažu od koje smo bili daleko.,ai,,,25,,,
,Timer frame,html.Frame,2_2_0,,,,,,,4385.100000143051,97717.60000014305,97714.494,97731,102116.10000014305,102116.10000014305,2024-07-30T16:35:25.709Z,102131,o0Bxo-wFMk,incremental,anketa,6645cf40bc81b65c5faccf1d,participant,hcpib7dulz8n0n3b,,,,,Vidimo plažu od koje smo bili daleko.,Vidimo plažu od koje smo bili daleko.,ai,,,25,,,
,stimulus,canvas.Screen,2_2_1_0,,,,,,response,1476.9000000953674,102116.40000009537,102114.4,102131,103607.90000009537,103609.79999995232,2024-07-30T16:35:27.202Z,103614.3,o0Bxo-wFMk,incremental,anketa,6645cf40bc81b65c5faccf1d,participant,hcpib7dulz8n0n3b,,4,click @4,,Vidimo plažu od koje smo bili daleko.,Vidimo plažu od koje smo bili daleko.,ai,,,25,,,
,Timer frame,html.Frame,2_2_1,,,,,,,1478.7999999523163,102116.20000004768,102114.4,102131,103609.79999995232,103610,2024-07-30T16:35:27.203Z,103614.3,o0Bxo-wFMk,incremental,anketa,6645cf40bc81b65c5faccf1d,participant,hcpib7dulz8n0n3b,,,,,Vidimo plažu od koje smo bili daleko.,Vidimo plažu od koje smo bili daleko.,ai,,,25,,,
,Spremanje,canvas.Screen,2_2_2,,,,,,skipped,,103610,,,103609.79999995232,103610,2024-07-30T16:35:27.203Z,103614.3,o0Bxo-wFMk,incremental,anketa,6645cf40bc81b65c5faccf1d,participant,hcpib7dulz8n0n3b,,,,,Vidimo plažu od koje smo bili daleko.,Vidimo plažu od koje smo bili daleko.,ai,,,25,,,
,Question form,html.Form,2_2_3,,,,,,skipped,,103610.10000014305,,,103609.79999995232,103610.29999995232,2024-07-30T16:35:27.203Z,103614.3,o0Bxo-wFMk,incremental,anketa,6645cf40bc81b65c5faccf1d,participant,hcpib7dulz8n0n3b,,,,,Vidimo plažu od koje smo bili daleko.,Vidimo plažu od koje smo bili daleko.,ai,,,25,,,
,Answer indication,canvas.Screen,2_2_4,,,,,,skipped,,103610.90000009537,,,103609.79999995232,103611,2024-07-30T16:35:27.204Z,103614.3,o0Bxo-wFMk,incremental,anketa,6645cf40bc81b65c5faccf1d,participant,hcpib7dulz8n0n3b,,,,,Vidimo plažu od koje smo bili daleko.,Vidimo plažu od koje smo bili daleko.,ai,,,25,,,
,inter-stimulus,canvas.Screen,2_2_5,,,,,,response,828.4000000476808,103611,103598.2,103614.3,104442.70000004768,104444.10000014305,2024-07-30T16:35:28.037Z,104447.7,o0Bxo-wFMk,incremental,anketa,6645cf40bc81b65c5faccf1d,participant,hcpib7dulz8n0n3b,,,mousedown,,Vidimo plažu od koje smo bili daleko.,Vidimo plažu od koje smo bili daleko.,ai,,,25,,,
,Sequence,flow.Sequence,2_2,,,,,,completion,6711.700000047684,97717.5,97714.494,97731,104442.70000004768,104444.40000009537,2024-07-30T16:35:28.037Z,104447.7,o0Bxo-wFMk,incremental,anketa,6645cf40bc81b65c5faccf1d,participant,hcpib7dulz8n0n3b,,,,,Vidimo plažu od koje smo bili daleko.,Vidimo plažu od koje smo bili daleko.,ai,,,25,,,
,context,canvas.Screen,2_3_0_0,,,,,,response,4891.599999952319,104444.70000004768,104431.466,104447.7,109339.29999995232,109340.10000014305,2024-07-30T16:35:32.933Z,109348.23,o0Bxo-wFMk,incremental,anketa,6645cf40bc81b65c5faccf1d,participant,hcpib7dulz8n0n3b,,,click,,Koliko vidim dječaka kojem je ljubazni poštar poklonio bicikla??,Vidim dječaka kojem je ljubazni poštar poklonio dva bicikla..,cnp,38,38,10,,,2305
,Timer frame,html.Frame,2_3_0,,,,,,,4892.599999952319,104444.5,104431.466,104447.7,109340.29999995232,109340.40000009537,2024-07-30T16:35:32.933Z,109348.23,o0Bxo-wFMk,incremental,anketa,6645cf40bc81b65c5faccf1d,participant,hcpib7dulz8n0n3b,,,,,Koliko vidim dječaka kojem je ljubazni poštar poklonio bicikla??,Vidim dječaka kojem je ljubazni poštar poklonio dva bicikla..,cnp,38,38,10,,,2305
,stimulus,canvas.Screen,2_3_1_0,,,,,,response,4010.870000143055,109340.5,109348.23,109348.23,113359.10000014305,113360.10000014305,2024-07-30T16:35:36.953Z,113381.1,o0Bxo-wFMk,incremental,anketa,6645cf40bc81b65c5faccf1d,participant,hcpib7dulz8n0n3b,,6,click @6,,Koliko vidim dječaka kojem je ljubazni poštar poklonio bicikla??,Vidim dječaka kojem je ljubazni poštar poklonio dva bicikla..,cnp,38,38,10,,,2305
,Timer frame,html.Frame,2_3_1,,,,,,,4011.970000047688,109340.40000009537,109348.23,109348.23,113360.20000004768,113360.40000009537,2024-07-30T16:35:36.953Z,113381.1,o0Bxo-wFMk,incremental,anketa,6645cf40bc81b65c5faccf1d,participant,hcpib7dulz8n0n3b,,,,,Koliko vidim dječaka kojem je ljubazni poštar poklonio bicikla??,Vidim dječaka kojem je ljubazni poštar poklonio dva bicikla..,cnp,38,38,10,,,2305
,Spremanje,canvas.Screen,2_3_2,,,,,,skipped,,113360.40000009537,,,113360.20000004768,113360.40000009537,2024-07-30T16:35:36.953Z,113381.1,o0Bxo-wFMk,incremental,anketa,6645cf40bc81b65c5faccf1d,participant,hcpib7dulz8n0n3b,,,,,Koliko vidim dječaka kojem je ljubazni poštar poklonio bicikla??,Vidim dječaka kojem je ljubazni poštar poklonio dva bicikla..,cnp,38,38,10,,,2305
,Question form,html.Form,2_3_3,,,,,,skipped,,113360.5,,,113360.20000004768,113360.60000014305,2024-07-30T16:35:36.953Z,113381.1,o0Bxo-wFMk,incremental,anketa,6645cf40bc81b65c5faccf1d,participant,hcpib7dulz8n0n3b,,,,,Koliko vidim dječaka kojem je ljubazni poštar poklonio bicikla??,Vidim dječaka kojem je ljubazni poštar poklonio dva bicikla..,cnp,38,38,10,,,2305
,Answer indication,canvas.Screen,2_3_4,,,,,,skipped,,113363.60000014305,,,113360.20000004768,113363.79999995232,2024-07-30T16:35:36.956Z,113381.1,o0Bxo-wFMk,incremental,anketa,6645cf40bc81b65c5faccf1d,participant,hcpib7dulz8n0n3b,,,,,Koliko vidim dječaka kojem je ljubazni poštar poklonio bicikla??,Vidim dječaka kojem je ljubazni poštar poklonio dva bicikla..,cnp,38,38,10,,,2305
,inter-stimulus,canvas.Screen,2_3_5,,,,,,response,897.0000001430453,113363.79999995232,113364.366,113381.1,114278.10000014305,114279.79999995232,2024-07-30T16:35:37.872Z,114314.5,o0Bxo-wFMk,incremental,anketa,6645cf40bc81b65c5faccf1d,participant,hcpib7dulz8n0n3b,,,mousedown,,Koliko vidim dječaka kojem je ljubazni poštar poklonio bicikla??,Vidim dječaka kojem je ljubazni poštar poklonio dva bicikla..,cnp,38,38,10,,,2305
,Sequence,flow.Sequence,2_3,,,,,,completion,9830.400000143054,104444.40000009537,104431.466,104447.7,114278.10000014305,114280.29999995232,2024-07-30T16:35:37.873Z,114314.5,o0Bxo-wFMk,incremental,anketa,6645cf40bc81b65c5faccf1d,participant,hcpib7dulz8n0n3b,,,,,Koliko vidim dječaka kojem je ljubazni poštar poklonio bicikla??,Vidim dječaka kojem je ljubazni poštar poklonio dva bicikla..,cnp,38,38,10,,,2305
,context,canvas.Screen,2_4_0_0,,,,,,response,2895,114280.70000004768,114298.094,114314.5,117209.5,117210.29999995232,2024-07-30T16:35:40.803Z,117214.2,o0Bxo-wFMk,incremental,anketa,6645cf40bc81b65c5faccf1d,participant,hcpib7dulz8n0n3b,,,click,,Vjerojatno je tu lijepa nekad bila crkva.,Vjerojatno je tu nekad bila lijepa crkva.,lbc,,,36,,,
,Timer frame,html.Frame,2_4_0,,,,,,,2895.9000000953674,114280.5,114298.094,114314.5,117210.40000009537,117210.40000009537,2024-07-30T16:35:40.803Z,117214.2,o0Bxo-wFMk,incremental,anketa,6645cf40bc81b65c5faccf1d,participant,hcpib7dulz8n0n3b,,,,,Vjerojatno je tu lijepa nekad bila crkva.,Vjerojatno je tu nekad bila lijepa crkva.,lbc,,,36,,,
,stimulus,canvas.Screen,2_4_1_0,,,,,,response,1051.0999999523192,117210.60000014305,117198.154,117214.2,118265.29999995232,118266.20000004768,2024-07-30T16:35:41.858Z,118297.6,o0Bxo-wFMk,incremental,anketa,6645cf40bc81b65c5faccf1d,participant,hcpib7dulz8n0n3b,,3,click @3,,Vjerojatno je tu lijepa nekad bila crkva.,Vjerojatno je tu nekad bila lijepa crkva.,lbc,,,36,,,
,Timer frame,html.Frame,2_4_1,,,,,,,1052.2000000953703,117210.5,117198.154,117214.2,118266.40000009537,118266.40000009537,2024-07-30T16:35:41.859Z,118297.6,o0Bxo-wFMk,incremental,anketa,6645cf40bc81b65c5faccf1d,participant,hcpib7dulz8n0n3b,,,,,Vjerojatno je tu lijepa nekad bila crkva.,Vjerojatno je tu nekad bila lijepa crkva.,lbc,,,36,,,
,Spremanje,canvas.Screen,2_4_2,,,,,,skipped,,118266.5,,,118266.40000009537,118266.5,2024-07-30T16:35:41.859Z,118297.6,o0Bxo-wFMk,incremental,anketa,6645cf40bc81b65c5faccf1d,participant,hcpib7dulz8n0n3b,,,,,Vjerojatno je tu lijepa nekad bila crkva.,Vjerojatno je tu nekad bila lijepa crkva.,lbc,,,36,,,
,Question form,html.Form,2_4_3,,,,,,skipped,,118266.5,,,118266.40000009537,118266.60000014305,2024-07-30T16:35:41.859Z,118297.6,o0Bxo-wFMk,incremental,anketa,6645cf40bc81b65c5faccf1d,participant,hcpib7dulz8n0n3b,,,,,Vjerojatno je tu lijepa nekad bila crkva.,Vjerojatno je tu nekad bila lijepa crkva.,lbc,,,36,,,
,Answer indication,canvas.Screen,2_4_4,,,,,,skipped,,118267.10000014305,,,118266.40000009537,118267.29999995232,2024-07-30T16:35:41.860Z,118297.6,o0Bxo-wFMk,incremental,anketa,6645cf40bc81b65c5faccf1d,participant,hcpib7dulz8n0n3b,,,,,Vjerojatno je tu lijepa nekad bila crkva.,Vjerojatno je tu nekad bila lijepa crkva.,lbc,,,36,,,
,inter-stimulus,canvas.Screen,2_4_5,,,,,,response,625.8000000953616,118267.29999995232,118281.432,118297.6,118923.40000009537,118925.29999995232,2024-07-30T16:35:42.518Z,118931.192,o0Bxo-wFMk,incremental,anketa,6645cf40bc81b65c5faccf1d,participant,hcpib7dulz8n0n3b,,,mousedown,,Vjerojatno je tu lijepa nekad bila crkva.,Vjerojatno je tu nekad bila lijepa crkva.,lbc,,,36,,,
,Sequence,flow.Sequence,2_4,,,,,,completion,4608.900000095367,114280.40000009537,114298.094,114314.5,118923.40000009537,118925.5,2024-07-30T16:35:42.518Z,118931.192,o0Bxo-wFMk,incremental,anketa,6645cf40bc81b65c5faccf1d,participant,hcpib7dulz8n0n3b,,,,,Vjerojatno je tu lijepa nekad bila crkva.,Vjerojatno je tu nekad bila lijepa crkva.,lbc,,,36,,,
,context,canvas.Screen,2_5_0_0,,,,,,response,2623.9080001430557,118925.79999995232,118931.192,118931.192,121555.10000014305,121555.90000009537,2024-07-30T16:35:45.148Z,121564.3,o0Bxo-wFMk,incremental,anketa,6645cf40bc81b65c5faccf1d,participant,hcpib7dulz8n0n3b,,,click,,Kolike su trenutno plaće u hrvatskom sportu?,Kolike plaće su trenutno u hrvatskom sportu?,lbc,,,35,,,
,Timer frame,html.Frame,2_5_0,,,,,,,2624.9080001430557,118925.70000004768,118931.192,118931.192,121556.10000014305,121556.29999995232,2024-07-30T16:35:45.149Z,121564.3,o0Bxo-wFMk,incremental,anketa,6645cf40bc81b65c5faccf1d,participant,hcpib7dulz8n0n3b,,,,,Kolike su trenutno plaće u hrvatskom sportu?,Kolike plaće su trenutno u hrvatskom sportu?,lbc,,,35,,,
,stimulus,canvas.Screen,2_5_1_0,,,,,,response,3258.699999999997,121556.60000014305,121548.1,121564.3,124823,124823.90000009537,2024-07-30T16:35:48.416Z,124830.9,o0Bxo-wFMk,incremental,anketa,6645cf40bc81b65c5faccf1d,participant,hcpib7dulz8n0n3b,,7,click @7,,Kolike su trenutno plaće u hrvatskom sportu?,Kolike plaće su trenutno u hrvatskom sportu?,lbc,,,35,,,
,Timer frame,html.Frame,2_5_1,,,,,,,3259.8000001430482,121556.5,121548.1,121564.3,124824.10000014305,124824.10000014305,2024-07-30T16:35:48.416Z,124830.9,o0Bxo-wFMk,incremental,anketa,6645cf40bc81b65c5faccf1d,participant,hcpib7dulz8n0n3b,,,,,Kolike su trenutno plaće u hrvatskom sportu?,Kolike plaće su trenutno u hrvatskom sportu?,lbc,,,35,,,
,Spremanje,canvas.Screen,2_5_2,,,,,,skipped,,124824.20000004768,,,124824.10000014305,124824.20000004768,2024-07-30T16:35:48.417Z,124830.9,o0Bxo-wFMk,incremental,anketa,6645cf40bc81b65c5faccf1d,participant,hcpib7dulz8n0n3b,,,,,Kolike su trenutno plaće u hrvatskom sportu?,Kolike plaće su trenutno u hrvatskom sportu?,lbc,,,35,,,
,Question form,html.Form,2_5_3,,,,,,skipped,,124824.40000009537,,,124824.10000014305,124824.40000009537,2024-07-30T16:35:48.417Z,124830.9,o0Bxo-wFMk,incremental,anketa,6645cf40bc81b65c5faccf1d,participant,hcpib7dulz8n0n3b,,,,,Kolike su trenutno plaće u hrvatskom sportu?,Kolike plaće su trenutno u hrvatskom sportu?,lbc,,,35,,,
,Answer indication,canvas.Screen,2_5_4,,,,,,skipped,,124825,,,124824.10000014305,124825.10000014305,2024-07-30T16:35:48.417Z,124830.9,o0Bxo-wFMk,incremental,anketa,6645cf40bc81b65c5faccf1d,participant,hcpib7dulz8n0n3b,,,,,Kolike su trenutno plaće u hrvatskom sportu?,Kolike plaće su trenutno u hrvatskom sportu?,lbc,,,35,,,
,inter-stimulus,canvas.Screen,2_5_5,,,,,,response,844.3999999523221,124825.20000004768,124814.764,124830.9,125675.29999995232,125677.10000014305,2024-07-30T16:35:49.269Z,125697.7,o0Bxo-wFMk,incremental,anketa,6645cf40bc81b65c5faccf1d,participant,hcpib7dulz8n0n3b,,,mousedown,,Kolike su trenutno plaće u hrvatskom sportu?,Kolike plaće su trenutno u hrvatskom sportu?,lbc,,,35,,,
,Sequence,flow.Sequence,2_5,,,,,,completion,6744.107999952321,118925.60000014305,118931.192,118931.192,125675.29999995232,125677.40000009537,2024-07-30T16:35:49.270Z,125697.7,o0Bxo-wFMk,incremental,anketa,6645cf40bc81b65c5faccf1d,participant,hcpib7dulz8n0n3b,,,,,Kolike su trenutno plaće u hrvatskom sportu?,Kolike plaće su trenutno u hrvatskom sportu?,lbc,,,35,,,
,context,canvas.Screen,2_6_0_0,,,,,,response,1735.300000000003,125677.70000004768,125680.9,125697.7,127433,127433.70000004768,2024-07-30T16:35:51.026Z,127448,o0Bxo-wFMk,incremental,anketa,6645cf40bc81b65c5faccf1d,participant,hcpib7dulz8n0n3b,,,click,,Ove godine su se Viktor i Marta vjenčao.,Victor i Marta vjenčali su se ove godine.,nf,,,38,,,
,Timer frame,html.Frame,2_6_0,,,,,,,1736.0999999523192,125677.60000014305,125680.9,125697.7,127433.79999995232,127433.90000009537,2024-07-30T16:35:51.026Z,127448,o0Bxo-wFMk,incremental,anketa,6645cf40bc81b65c5faccf1d,participant,hcpib7dulz8n0n3b,,,,,Ove godine su se Viktor i Marta vjenčao.,Victor i Marta vjenčali su se ove godine.,nf,,,38,,,
,stimulus,canvas.Screen,2_6_1_0,,,,,,response,2265.5,127434.10000014305,127430.9,127448,129713.5,129714.60000014305,2024-07-30T16:35:53.307Z,129730.8,o0Bxo-wFMk,incremental,anketa,6645cf40bc81b65c5faccf1d,participant,hcpib7dulz8n0n3b,,1,click @1,,Ove godine su se Viktor i Marta vjenčao.,Victor i Marta vjenčali su se ove godine.,nf,,,38,,,
,Timer frame,html.Frame,2_6_1,,,,,,,2266.7000000476837,127434,127430.9,127448,129714.70000004768,129714.79999995232,2024-07-30T16:35:53.307Z,129730.8,o0Bxo-wFMk,incremental,anketa,6645cf40bc81b65c5faccf1d,participant,hcpib7dulz8n0n3b,,,,,Ove godine su se Viktor i Marta vjenčao.,Victor i Marta vjenčali su se ove godine.,nf,,,38,,,
,Spremanje,canvas.Screen,2_6_2,,,,,,skipped,,129714.79999995232,,,129714.70000004768,129714.90000009537,2024-07-30T16:35:53.307Z,129730.8,o0Bxo-wFMk,incremental,anketa,6645cf40bc81b65c5faccf1d,participant,hcpib7dulz8n0n3b,,,,,Ove godine su se Viktor i Marta vjenčao.,Victor i Marta vjenčali su se ove godine.,nf,,,38,,,
,Question form,html.Form,2_6_3,,,,,,skipped,,129715,,,129714.70000004768,129715,2024-07-30T16:35:53.307Z,129730.8,o0Bxo-wFMk,incremental,anketa,6645cf40bc81b65c5faccf1d,participant,hcpib7dulz8n0n3b,,,,,Ove godine su se Viktor i Marta vjenčao.,Victor i Marta vjenčali su se ove godine.,nf,,,38,,,
,Answer indication,canvas.Screen,2_6_4,,,,,,skipped,,129715.5,,,129714.70000004768,129715.70000004768,2024-07-30T16:35:53.308Z,129730.8,o0Bxo-wFMk,incremental,anketa,6645cf40bc81b65c5faccf1d,participant,hcpib7dulz8n0n3b,,,,,Ove godine su se Viktor i Marta vjenčao.,Victor i Marta vjenčali su se ove godine.,nf,,,38,,,
,inter-stimulus,canvas.Screen,2_6_5,,,,,,response,1234.3000001430482,129715.70000004768,129714.592,129730.8,130965.10000014305,130967.40000009537,2024-07-30T16:35:54.560Z,130980.8,o0Bxo-wFMk,incremental,anketa,6645cf40bc81b65c5faccf1d,participant,hcpib7dulz8n0n3b,,,mousedown,,Ove godine su se Viktor i Marta vjenčao.,Victor i Marta vjenčali su se ove godine.,nf,,,38,,,
,Sequence,flow.Sequence,2_6,,,,,,completion,5267.400000143054,125677.5,125680.9,125697.7,130965.10000014305,130967.79999995232,2024-07-30T16:35:54.560Z,130980.8,o0Bxo-wFMk,incremental,anketa,6645cf40bc81b65c5faccf1d,participant,hcpib7dulz8n0n3b,,,,,Ove godine su se Viktor i Marta vjenčao.,Victor i Marta vjenčali su se ove godine.,nf,,,38,,,
,context,canvas.Screen,2_7_0_0,,,,,,response,2346.699999999997,130968.20000004768,130964.666,130980.8,133327.5,133328.29999995232,2024-07-30T16:35:56.921Z,133330.8,o0Bxo-wFMk,incremental,anketa,6645cf40bc81b65c5faccf1d,participant,hcpib7dulz8n0n3b,,,click,,Od čega je djed otišao u sanatorij odmarati?,Djed je otišao u sanatorij odmarati od gužve i buke..,ai,,26,30,,,
,Timer frame,html.Frame,2_7_0,,,,,,,2347.6000000953645,130968.10000014305,130964.666,130980.8,133328.40000009537,133328.5,2024-07-30T16:35:56.921Z,133330.8,o0Bxo-wFMk,incremental,anketa,6645cf40bc81b65c5faccf1d,participant,hcpib7dulz8n0n3b,,,,,Od čega je djed otišao u sanatorij odmarati?,Djed je otišao u sanatorij odmarati od gužve i buke..,ai,,26,30,,,
,stimulus,canvas.Screen,2_7_1_0,,,,,,response,3748.300000143063,133328.70000004768,133314.8,133330.8,137079.10000014305,137080,2024-07-30T16:36:00.672Z,137097.5,o0Bxo-wFMk,incremental,anketa,6645cf40bc81b65c5faccf1d,participant,hcpib7dulz8n0n3b,,7,click @7,,Od čega je djed otišao u sanatorij odmarati?,Djed je otišao u sanatorij odmarati od gužve i buke..,ai,,26,30,,,
,Timer frame,html.Frame,2_7_1,,,,,,,3749.300000143063,133328.5,133314.8,133330.8,137080.10000014305,137080.10000014305,2024-07-30T16:36:00.672Z,137097.5,o0Bxo-wFMk,incremental,anketa,6645cf40bc81b65c5faccf1d,participant,hcpib7dulz8n0n3b,,,,,Od čega je djed otišao u sanatorij odmarati?,Djed je otišao u sanatorij odmarati od gužve i buke..,ai,,26,30,,,
,Spremanje,canvas.Screen,2_7_2,,,,,,skipped,,137080.29999995232,,,137080.10000014305,137080.29999995232,2024-07-30T16:36:00.673Z,137097.5,o0Bxo-wFMk,incremental,anketa,6645cf40bc81b65c5faccf1d,participant,hcpib7dulz8n0n3b,,,,,Od čega je djed otišao u sanatorij odmarati?,Djed je otišao u sanatorij odmarati od gužve i buke..,ai,,26,30,,,
,Question form,html.Form,2_7_3,,,,,,skipped,,137080.40000009537,,,137080.10000014305,137080.5,2024-07-30T16:36:00.673Z,137097.5,o0Bxo-wFMk,incremental,anketa,6645cf40bc81b65c5faccf1d,participant,hcpib7dulz8n0n3b,,,,,Od čega je djed otišao u sanatorij odmarati?,Djed je otišao u sanatorij odmarati od gužve i buke..,ai,,26,30,,,
,Answer indication,canvas.Screen,2_7_4,,,,,,skipped,,137081.29999995232,,,137080.10000014305,137081.5,2024-07-30T16:36:00.674Z,137097.5,o0Bxo-wFMk,incremental,anketa,6645cf40bc81b65c5faccf1d,participant,hcpib7dulz8n0n3b,,,,,Od čega je djed otišao u sanatorij odmarati?,Djed je otišao u sanatorij odmarati od gužve i buke..,ai,,26,30,,,
,inter-stimulus,canvas.Screen,2_7_5,,,,,,response,1007,137081.5,137081.332,137097.5,138104.5,138106.29999995232,2024-07-30T16:36:01.698Z,138114.1,o0Bxo-wFMk,incremental,anketa,6645cf40bc81b65c5faccf1d,participant,hcpib7dulz8n0n3b,,,mousedown,,Od čega je djed otišao u sanatorij odmarati?,Djed je otišao u sanatorij odmarati od gužve i buke..,ai,,26,30,,,
,Sequence,flow.Sequence,2_7,,,,,,completion,7123.699999999997,130968,130964.666,130980.8,138104.5,138106.5,2024-07-30T16:36:01.699Z,138114.1,o0Bxo-wFMk,incremental,anketa,6645cf40bc81b65c5faccf1d,participant,hcpib7dulz8n0n3b,,,,,Od čega je djed otišao u sanatorij odmarati?,Djed je otišao u sanatorij odmarati od gužve i buke..,ai,,26,30,,,
,context,canvas.Screen,2_8_0_0,,,,,,response,1907.0000001430453,138106.90000009537,138097.9,138114.1,140021.10000014305,140021.90000009537,2024-07-30T16:36:03.614Z,140031.296,o0Bxo-wFMk,incremental,anketa,6645cf40bc81b65c5faccf1d,participant,hcpib7dulz8n0n3b,,,click,,O čemu je Ivo cijelu večer pričao?,Ivo je cijelu večer pričao o autima.,gf,,,47,,,
,Timer frame,html.Frame,2_8_0,,,,,,,1907.8999999999942,138106.70000004768,138097.9,138114.1,140022,140022,2024-07-30T16:36:03.614Z,140031.296,o0Bxo-wFMk,incremental,anketa,6645cf40bc81b65c5faccf1d,participant,hcpib7dulz8n0n3b,,,,,O čemu je Ivo cijelu večer pričao?,Ivo je cijelu večer pričao o autima.,gf,,,47,,,
,stimulus,canvas.Screen,2_8_1_0,,,,,,response,1731.9040000476816,140022.20000004768,140031.296,140031.296,141763.20000004768,141764.40000009537,2024-07-30T16:36:05.357Z,141797.8,o0Bxo-wFMk,incremental,anketa,6645cf40bc81b65c5faccf1d,participant,hcpib7dulz8n0n3b,,7,click @7,,O čemu je Ivo cijelu večer pričao?,Ivo je cijelu večer pričao o autima.,gf,,,47,,,
,Timer frame,html.Frame,2_8_1,,,,,,,1733.304000143049,140022,140031.296,140031.296,141764.60000014305,141764.79999995232,2024-07-30T16:36:05.357Z,141797.8,o0Bxo-wFMk,incremental,anketa,6645cf40bc81b65c5faccf1d,participant,hcpib7dulz8n0n3b,,,,,O čemu je Ivo cijelu večer pričao?,Ivo je cijelu večer pričao o autima.,gf,,,47,,,
,Spremanje,canvas.Screen,2_8_2,,,,,,skipped,,141764.90000009537,,,141764.60000014305,141765,2024-07-30T16:36:05.357Z,141797.8,o0Bxo-wFMk,incremental,anketa,6645cf40bc81b65c5faccf1d,participant,hcpib7dulz8n0n3b,,,,,O čemu je Ivo cijelu večer pričao?,Ivo je cijelu večer pričao o autima.,gf,,,47,,,
,Question form,html.Form,2_8_3,,,,,,skipped,,141765.10000014305,,,141764.60000014305,141765.10000014305,2024-07-30T16:36:05.357Z,141797.8,o0Bxo-wFMk,incremental,anketa,6645cf40bc81b65c5faccf1d,participant,hcpib7dulz8n0n3b,,,,,O čemu je Ivo cijelu večer pričao?,Ivo je cijelu večer pričao o autima.,gf,,,47,,,
,Answer indication,canvas.Screen,2_8_4,,,,,,skipped,,141765.79999995232,,,141764.60000014305,141765.90000009537,2024-07-30T16:36:05.358Z,141797.8,o0Bxo-wFMk,incremental,anketa,6645cf40bc81b65c5faccf1d,participant,hcpib7dulz8n0n3b,,,,,O čemu je Ivo cijelu večer pričao?,Ivo je cijelu večer pričao o autima.,gf,,,47,,,
,inter-stimulus,canvas.Screen,2_8_5,,,,,,response,779.6000000953791,141766.10000014305,141780.8,141797.8,142577.40000009537,142579.20000004768,2024-07-30T16:36:06.172Z,142581.23,o0Bxo-wFMk,incremental,anketa,6645cf40bc81b65c5faccf1d,participant,hcpib7dulz8n0n3b,,,mousedown,,O čemu je Ivo cijelu večer pričao?,Ivo je cijelu večer pričao o autima.,gf,,,47,,,
,Sequence,flow.Sequence,2_8,,,,,,completion,4463.300000095362,138106.60000014305,138097.9,138114.1,142577.40000009537,142579.5,2024-07-30T16:36:06.172Z,142581.23,o0Bxo-wFMk,incremental,anketa,6645cf40bc81b65c5faccf1d,participant,hcpib7dulz8n0n3b,,,,,O čemu je Ivo cijelu večer pričao?,Ivo je cijelu večer pričao o autima.,gf,,,47,,,
,context,canvas.Screen,2_9_0_0,,,,,,response,2175.8700001430407,142580,142581.23,142581.23,144757.10000014305,144758,2024-07-30T16:36:08.350Z,144764,o0Bxo-wFMk,incremental,anketa,6645cf40bc81b65c5faccf1d,participant,hcpib7dulz8n0n3b,,,click,,Večeras je Anna nalakirala nokte.,Anna je večeras nalakirala nokte.,gf,,,49,,,
,Timer frame,html.Frame,2_9_0,,,,,,,2176.9700000476732,142579.79999995232,142581.23,142581.23,144758.20000004768,144758.20000004768,2024-07-30T16:36:08.351Z,144764,o0Bxo-wFMk,incremental,anketa,6645cf40bc81b65c5faccf1d,participant,hcpib7dulz8n0n3b,,,,,Večeras je Anna nalakirala nokte.,Anna je večeras nalakirala nokte.,gf,,,49,,,
,stimulus,canvas.Screen,2_9_1_0,,,,,,response,2199.2000000476837,144758.40000009537,144747.996,144764,146963.20000004768,146965.5,2024-07-30T16:36:10.558Z,146980.6,o0Bxo-wFMk,incremental,anketa,6645cf40bc81b65c5faccf1d,participant,hcpib7dulz8n0n3b,,7,click @7,,Večeras je Anna nalakirala nokte.,Anna je večeras nalakirala nokte.,gf,,,49,,,
,Timer frame,html.Frame,2_9_1,,,,,,,2201.600000143051,144758.29999995232,144747.996,144764,146965.60000014305,146965.70000004768,2024-07-30T16:36:10.558Z,146980.6,o0Bxo-wFMk,incremental,anketa,6645cf40bc81b65c5faccf1d,participant,hcpib7dulz8n0n3b,,,,,Večeras je Anna nalakirala nokte.,Anna je večeras nalakirala nokte.,gf,,,49,,,
,Spremanje,canvas.Screen,2_9_2,,,,,,skipped,,146965.70000004768,,,146965.60000014305,146965.70000004768,2024-07-30T16:36:10.558Z,146980.6,o0Bxo-wFMk,incremental,anketa,6645cf40bc81b65c5faccf1d,participant,hcpib7dulz8n0n3b,,,,,Večeras je Anna nalakirala nokte.,Anna je večeras nalakirala nokte.,gf,,,49,,,
,Question form,html.Form,2_9_3,,,,,,skipped,,146965.70000004768,,,146965.60000014305,146965.90000009537,2024-07-30T16:36:10.558Z,146980.6,o0Bxo-wFMk,incremental,anketa,6645cf40bc81b65c5faccf1d,participant,hcpib7dulz8n0n3b,,,,,Večeras je Anna nalakirala nokte.,Anna je večeras nalakirala nokte.,gf,,,49,,,
,Answer indication,canvas.Screen,2_9_4,,,,,,skipped,,146967,,,146965.60000014305,146967.10000014305,2024-07-30T16:36:10.559Z,146980.6,o0Bxo-wFMk,incremental,anketa,6645cf40bc81b65c5faccf1d,participant,hcpib7dulz8n0n3b,,,,,Večeras je Anna nalakirala nokte.,Anna je večeras nalakirala nokte.,gf,,,49,,,
,inter-stimulus,canvas.Screen,2_9_5,,,,,,response,995.1999999523105,146967.10000014305,146964.46,146980.6,147975.79999995232,147977.60000014305,2024-07-30T16:36:11.570Z,147997.3,o0Bxo-wFMk,incremental,anketa,6645cf40bc81b65c5faccf1d,participant,hcpib7dulz8n0n3b,,,mousedown,,Večeras je Anna nalakirala nokte.,Anna je večeras nalakirala nokte.,gf,,,49,,,
,Sequence,flow.Sequence,2_9,,,,,,completion,5394.569999952306,142579.70000004768,142581.23,142581.23,147975.79999995232,147977.90000009537,2024-07-30T16:36:11.570Z,147997.3,o0Bxo-wFMk,incremental,anketa,6645cf40bc81b65c5faccf1d,participant,hcpib7dulz8n0n3b,,,,,Večeras je Anna nalakirala nokte.,Anna je večeras nalakirala nokte.,gf,,,49,,,
,context,canvas.Screen,2_10_0_0,,,,,,response,2662.2000000000116,147978.29999995232,147981.16,147997.3,150659.5,150660.29999995232,2024-07-30T16:36:14.253Z,150663.9,o0Bxo-wFMk,incremental,anketa,6645cf40bc81b65c5faccf1d,participant,hcpib7dulz8n0n3b,,,click,,Čega je riješio taj misterij?,Riješio je taj misterij nestanka psa.,di,,,32,,,
,Timer frame,html.Frame,2_10_0,,,,,,,2663.100000095379,147978.10000014305,147981.16,147997.3,150660.40000009537,150660.5,2024-07-30T16:36:14.253Z,150663.9,o0Bxo-wFMk,incremental,anketa,6645cf40bc81b65c5faccf1d,participant,hcpib7dulz8n0n3b,,,,,Čega je riješio taj misterij?,Riješio je taj misterij nestanka psa.,di,,,32,,,
,stimulus,canvas.Screen,2_10_1_0,,,,,,response,2015.6000000000058,150660.70000004768,150647.856,150663.9,152679.5,152680.29999995232,2024-07-30T16:36:16.273Z,152714.5,o0Bxo-wFMk,incremental,anketa,6645cf40bc81b65c5faccf1d,participant,hcpib7dulz8n0n3b,,1,click @1,,Čega je riješio taj misterij?,Riješio je taj misterij nestanka psa.,di,,,32,,,
,Timer frame,html.Frame,2_10_1,,,,,,,2016.5000000953733,150660.60000014305,150647.856,150663.9,152680.40000009537,152680.5,2024-07-30T16:36:16.273Z,152714.5,o0Bxo-wFMk,incremental,anketa,6645cf40bc81b65c5faccf1d,participant,hcpib7dulz8n0n3b,,,,,Čega je riješio taj misterij?,Riješio je taj misterij nestanka psa.,di,,,32,,,
,Spremanje,canvas.Screen,2_10_2,,,,,,skipped,,152680.5,,,152680.40000009537,152680.60000014305,2024-07-30T16:36:16.273Z,152714.5,o0Bxo-wFMk,incremental,anketa,6645cf40bc81b65c5faccf1d,participant,hcpib7dulz8n0n3b,,,,,Čega je riješio taj misterij?,Riješio je taj misterij nestanka psa.,di,,,32,,,
,Question form,html.Form,2_10_3,,,,,,skipped,,152680.70000004768,,,152680.40000009537,152680.79999995232,2024-07-30T16:36:16.273Z,152714.5,o0Bxo-wFMk,incremental,anketa,6645cf40bc81b65c5faccf1d,participant,hcpib7dulz8n0n3b,,,,,Čega je riješio taj misterij?,Riješio je taj misterij nestanka psa.,di,,,32,,,
,Answer indication,canvas.Screen,2_10_4,,,,,,skipped,,152682,,,152680.40000009537,152682.20000004768,2024-07-30T16:36:16.274Z,152714.5,o0Bxo-wFMk,incremental,anketa,6645cf40bc81b65c5faccf1d,participant,hcpib7dulz8n0n3b,,,,,Čega je riješio taj misterij?,Riješio je taj misterij nestanka psa.,di,,,32,,,
,inter-stimulus,canvas.Screen,2_10_5,,,,,,response,963.1000001430511,152682.29999995232,152697.498,152714.5,153677.60000014305,153679.29999995232,2024-07-30T16:36:17.272Z,153697.8,o0Bxo-wFMk,incremental,anketa,6645cf40bc81b65c5faccf1d,participant,hcpib7dulz8n0n3b,,,mousedown,,Čega je riješio taj misterij?,Riješio je taj misterij nestanka psa.,di,,,32,,,
,Sequence,flow.Sequence,2_10,,,,,,completion,5680.300000143063,147978.10000014305,147981.16,147997.3,153677.60000014305,153679.60000014305,2024-07-30T16:36:17.272Z,153697.8,o0Bxo-wFMk,incremental,anketa,6645cf40bc81b65c5faccf1d,participant,hcpib7dulz8n0n3b,,,,,Čega je riješio taj misterij?,Riješio je taj misterij nestanka psa.,di,,,32,,,
,context,canvas.Screen,2_11_0_0,,,,,,response,5825.700000000012,153679.90000009537,153681.098,153697.8,159523.5,159524.29999995232,2024-07-30T16:36:23.117Z,159547.7,o0Bxo-wFMk,incremental,anketa,6645cf40bc81b65c5faccf1d,participant,hcpib7dulz8n0n3b,,,click,,"Što je on plakao, čitajući?","On je plakao, čitajući knjigu.",ai,,,22,,,
,Timer frame,html.Frame,2_11_0,,,,,,,5826.600000095379,153679.79999995232,153681.098,153697.8,159524.40000009537,159524.5,2024-07-30T16:36:23.117Z,159547.7,o0Bxo-wFMk,incremental,anketa,6645cf40bc81b65c5faccf1d,participant,hcpib7dulz8n0n3b,,,,,"Što je on plakao, čitajući?","On je plakao, čitajući knjigu.",ai,,,22,,,
,stimulus,canvas.Screen,2_11_1_0,,,,,,response,798.2000000953558,159524.70000004768,159530.8,159547.7,160345.90000009537,160347.79999995232,2024-07-30T16:36:23.940Z,160363.9,o0Bxo-wFMk,incremental,anketa,6645cf40bc81b65c5faccf1d,participant,hcpib7dulz8n0n3b,,1,click @1,,"Što je on plakao, čitajući?","On je plakao, čitajući knjigu.",ai,,,22,,,
,Timer frame,html.Frame,2_11_1,,,,,,,800.2000000953558,159524.5,159530.8,159547.7,160347.90000009537,160348.10000014305,2024-07-30T16:36:23.940Z,160363.9,o0Bxo-wFMk,incremental,anketa,6645cf40bc81b65c5faccf1d,participant,hcpib7dulz8n0n3b,,,,,"Što je on plakao, čitajući?","On je plakao, čitajući knjigu.",ai,,,22,,,
,Spremanje,canvas.Screen,2_11_2,,,,,,skipped,,160348.20000004768,,,160347.90000009537,160348.40000009537,2024-07-30T16:36:23.941Z,160363.9,o0Bxo-wFMk,incremental,anketa,6645cf40bc81b65c5faccf1d,participant,hcpib7dulz8n0n3b,,,,,"Što je on plakao, čitajući?","On je plakao, čitajući knjigu.",ai,,,22,,,
,Question form,html.Form,2_11_3,,,,,,skipped,,160348.40000009537,,,160347.90000009537,160348.60000014305,2024-07-30T16:36:23.941Z,160363.9,o0Bxo-wFMk,incremental,anketa,6645cf40bc81b65c5faccf1d,participant,hcpib7dulz8n0n3b,,,,,"Što je on plakao, čitajući?","On je plakao, čitajući knjigu.",ai,,,22,,,
,Answer indication,canvas.Screen,2_11_4,,,,,,skipped,,160349.20000004768,,,160347.90000009537,160349.40000009537,2024-07-30T16:36:23.942Z,160363.9,o0Bxo-wFMk,incremental,anketa,6645cf40bc81b65c5faccf1d,participant,hcpib7dulz8n0n3b,,,,,"Što je on plakao, čitajući?","On je plakao, čitajući knjigu.",ai,,,22,,,
,inter-stimulus,canvas.Screen,2_11_5,,,,,,response,871.700000143057,160349.5,160347.366,160363.9,161235.60000014305,161237.29999995232,2024-07-30T16:36:24.830Z,161264.4,o0Bxo-wFMk,incremental,anketa,6645cf40bc81b65c5faccf1d,participant,hcpib7dulz8n0n3b,,,mousedown,,"Što je on plakao, čitajući?","On je plakao, čitajući knjigu.",ai,,,22,,,
,Sequence,flow.Sequence,2_11,,,,,,completion,7537.800000143063,153679.70000004768,153681.098,153697.8,161235.60000014305,161237.70000004768,2024-07-30T16:36:24.830Z,161264.4,o0Bxo-wFMk,incremental,anketa,6645cf40bc81b65c5faccf1d,participant,hcpib7dulz8n0n3b,,,,,"Što je on plakao, čitajući?","On je plakao, čitajući knjigu.",ai,,,22,,,
,context,canvas.Screen,2_12_0_0,,,,,,response,2286.700000143057,161238,161247.798,161264.4,163551.10000014305,163551.90000009537,2024-07-30T16:36:27.144Z,163564.1,o0Bxo-wFMk,incremental,anketa,6645cf40bc81b65c5faccf1d,participant,hcpib7dulz8n0n3b,,,click,,Petar i Mara su jučer otišli u kino pogledati dobru komediju..,Jučer su Petar i Mara otišli u kino pogledati dobru komediju..,gf,35,35,46,,,
,Timer frame,html.Frame,2_12_0,,,,,,,2287.700000143057,161237.79999995232,161247.798,161264.4,163552.10000014305,163552.20000004768,2024-07-30T16:36:27.144Z,163564.1,o0Bxo-wFMk,incremental,anketa,6645cf40bc81b65c5faccf1d,participant,hcpib7dulz8n0n3b,,,,,Petar i Mara su jučer otišli u kino pogledati dobru komediju..,Jučer su Petar i Mara otišli u kino pogledati dobru komediju..,gf,35,35,46,,,
,stimulus,canvas.Screen,2_12_1_0,,,,,,response,2257.0000001430453,163552.40000009537,163547.666,163564.1,165821.10000014305,165822.10000014305,2024-07-30T16:36:29.414Z,165830.6,o0Bxo-wFMk,incremental,anketa,6645cf40bc81b65c5faccf1d,participant,hcpib7dulz8n0n3b,,7,click @7,,Petar i Mara su jučer otišli u kino pogledati dobru komediju..,Jučer su Petar i Mara otišli u kino pogledati dobru komediju..,gf,35,35,46,,,
,Timer frame,html.Frame,2_12_1,,,,,,,2258.100000047678,163552.29999995232,163547.666,163564.1,165822.20000004768,165822.29999995232,2024-07-30T16:36:29.415Z,165830.6,o0Bxo-wFMk,incremental,anketa,6645cf40bc81b65c5faccf1d,participant,hcpib7dulz8n0n3b,,,,,Petar i Mara su jučer otišli u kino pogledati dobru komediju..,Jučer su Petar i Mara otišli u kino pogledati dobru komediju..,gf,35,35,46,,,
,Spremanje,canvas.Screen,2_12_2,,,,,,skipped,,165822.29999995232,,,165822.20000004768,165822.40000009537,2024-07-30T16:36:29.415Z,165830.6,o0Bxo-wFMk,incremental,anketa,6645cf40bc81b65c5faccf1d,participant,hcpib7dulz8n0n3b,,,,,Petar i Mara su jučer otišli u kino pogledati dobru komediju..,Jučer su Petar i Mara otišli u kino pogledati dobru komediju..,gf,35,35,46,,,
,Question form,html.Form,2_12_3,,,,,,skipped,,165822.5,,,165822.20000004768,165822.60000014305,2024-07-30T16:36:29.415Z,165830.6,o0Bxo-wFMk,incremental,anketa,6645cf40bc81b65c5faccf1d,participant,hcpib7dulz8n0n3b,,,,,Petar i Mara su jučer otišli u kino pogledati dobru komediju..,Jučer su Petar i Mara otišli u kino pogledati dobru komediju..,gf,35,35,46,,,
,Answer indication,canvas.Screen,2_12_4,,,,,,skipped,,165823.10000014305,,,165822.20000004768,165823.20000004768,2024-07-30T16:36:29.415Z,165830.6,o0Bxo-wFMk,incremental,anketa,6645cf40bc81b65c5faccf1d,participant,hcpib7dulz8n0n3b,,,,,Petar i Mara su jučer otišli u kino pogledati dobru komediju..,Jučer su Petar i Mara otišli u kino pogledati dobru komediju..,gf,35,35,46,,,
,inter-stimulus,canvas.Screen,2_12_5,,,,,,response,2011.8999999999942,165823.29999995232,165814.366,165830.6,167842.5,167843.70000004768,2024-07-30T16:36:31.436Z,167847.1,o0Bxo-wFMk,incremental,anketa,6645cf40bc81b65c5faccf1d,participant,hcpib7dulz8n0n3b,,,mousedown,,Petar i Mara su jučer otišli u kino pogledati dobru komediju..,Jučer su Petar i Mara otišli u kino pogledati dobru komediju..,gf,35,35,46,,,
,Sequence,flow.Sequence,2_12,,,,,,completion,6578.100000000006,161237.79999995232,161247.798,161264.4,167842.5,167844,2024-07-30T16:36:31.436Z,167847.1,o0Bxo-wFMk,incremental,anketa,6645cf40bc81b65c5faccf1d,participant,hcpib7dulz8n0n3b,,,,,Petar i Mara su jučer otišli u kino pogledati dobru komediju..,Jučer su Petar i Mara otišli u kino pogledati dobru komediju..,gf,35,35,46,,,
,context,canvas.Screen,2_13_0_0,,,,,,response,5999.899999999994,167844.20000004768,167830.466,167847.1,173847,173848,2024-07-30T16:36:37.440Z,173880.4,o0Bxo-wFMk,incremental,anketa,6645cf40bc81b65c5faccf1d,participant,hcpib7dulz8n0n3b,,,click,,Na što je teško prestati besmisleno bacati novac?,Teško je prestati besmisleno bacati novac na tenisice.,si,,,13,,,
,Timer frame,html.Frame,2_13_0,,,,,,,6000.899999999994,167844.10000014305,167830.466,167847.1,173848,173848.10000014305,2024-07-30T16:36:37.440Z,173880.4,o0Bxo-wFMk,incremental,anketa,6645cf40bc81b65c5faccf1d,participant,hcpib7dulz8n0n3b,,,,,Na što je teško prestati besmisleno bacati novac?,Teško je prestati besmisleno bacati novac na tenisice.,si,,,13,,,
,stimulus,canvas.Screen,2_13_1_0,,,,,,response,2670.8000000476895,173848.29999995232,173864.42,173880.4,176551.20000004768,176552.10000014305,2024-07-30T16:36:40.145Z,176580.5,o0Bxo-wFMk,incremental,anketa,6645cf40bc81b65c5faccf1d,participant,hcpib7dulz8n0n3b,,7,click @7,,Na što je teško prestati besmisleno bacati novac?,Teško je prestati besmisleno bacati novac na tenisice.,si,,,13,,,
,Timer frame,html.Frame,2_13_1,,,,,,,2671.899999952322,173848.20000004768,173864.42,173880.4,176552.29999995232,176552.40000009537,2024-07-30T16:36:40.145Z,176580.5,o0Bxo-wFMk,incremental,anketa,6645cf40bc81b65c5faccf1d,participant,hcpib7dulz8n0n3b,,,,,Na što je teško prestati besmisleno bacati novac?,Teško je prestati besmisleno bacati novac na tenisice.,si,,,13,,,
,Spremanje,canvas.Screen,2_13_2,,,,,,skipped,,176552.40000009537,,,176552.29999995232,176552.5,2024-07-30T16:36:40.145Z,176580.5,o0Bxo-wFMk,incremental,anketa,6645cf40bc81b65c5faccf1d,participant,hcpib7dulz8n0n3b,,,,,Na što je teško prestati besmisleno bacati novac?,Teško je prestati besmisleno bacati novac na tenisice.,si,,,13,,,
,Question form,html.Form,2_13_3,,,,,,skipped,,176552.5,,,176552.29999995232,176552.60000014305,2024-07-30T16:36:40.145Z,176580.5,o0Bxo-wFMk,incremental,anketa,6645cf40bc81b65c5faccf1d,participant,hcpib7dulz8n0n3b,,,,,Na što je teško prestati besmisleno bacati novac?,Teško je prestati besmisleno bacati novac na tenisice.,si,,,13,,,
,Answer indication,canvas.Screen,2_13_4,,,,,,skipped,,176553.20000004768,,,176552.29999995232,176553.40000009537,2024-07-30T16:36:40.146Z,176580.5,o0Bxo-wFMk,incremental,anketa,6645cf40bc81b65c5faccf1d,participant,hcpib7dulz8n0n3b,,,,,Na što je teško prestati besmisleno bacati novac?,Teško je prestati besmisleno bacati novac na tenisice.,si,,,13,,,
,inter-stimulus,canvas.Screen,2_13_5,,,,,,response,981,176553.40000009537,176563.8,176580.5,177561.5,177564.60000014305,2024-07-30T16:36:41.157Z,177580.6,o0Bxo-wFMk,incremental,anketa,6645cf40bc81b65c5faccf1d,participant,hcpib7dulz8n0n3b,,,mousedown,,Na što je teško prestati besmisleno bacati novac?,Teško je prestati besmisleno bacati novac na tenisice.,si,,,13,,,
,Sequence,flow.Sequence,2_13,,,,,,completion,9714.399999999994,167844.10000014305,167830.466,167847.1,177561.5,177564.90000009537,2024-07-30T16:36:41.158Z,177580.6,o0Bxo-wFMk,incremental,anketa,6645cf40bc81b65c5faccf1d,participant,hcpib7dulz8n0n3b,,,,,Na što je teško prestati besmisleno bacati novac?,Teško je prestati besmisleno bacati novac na tenisice.,si,,,13,,,
,context,canvas.Screen,2_14_0_0,,,,,,response,3280.5000001430453,177565.29999995232,177564.16,177580.6,180861.10000014305,180861.90000009537,2024-07-30T16:36:44.455Z,180863.7,o0Bxo-wFMk,incremental,anketa,6645cf40bc81b65c5faccf1d,participant,hcpib7dulz8n0n3b,,,click,,Komu tužno je gledati da ljudi i dalje daju novac??,Tužno je gledati da ljudi i dalje daju novac šarlatanima..,si,38,33,19,,,
,Timer frame,html.Frame,2_14_0,,,,,,,3281.399999999994,177565.10000014305,177564.16,177580.6,180862,180862.10000014305,2024-07-30T16:36:44.455Z,180863.7,o0Bxo-wFMk,incremental,anketa,6645cf40bc81b65c5faccf1d,participant,hcpib7dulz8n0n3b,,,,,Komu tužno je gledati da ljudi i dalje daju novac??,Tužno je gledati da ljudi i dalje daju novac šarlatanima..,si,38,33,19,,,
,stimulus,canvas.Screen,2_14_1_0,,,,,,response,5793.799999999988,180862.20000004768,180847.6,180863.7,186657.5,186658.40000009537,2024-07-30T16:36:50.251Z,186663.7,o0Bxo-wFMk,incremental,anketa,6645cf40bc81b65c5faccf1d,participant,hcpib7dulz8n0n3b,,3,click @3,,Komu tužno je gledati da ljudi i dalje daju novac??,Tužno je gledati da ljudi i dalje daju novac šarlatanima..,si,38,33,19,,,
,Timer frame,html.Frame,2_14_1,,,,,,,5794.799999999988,180862.10000014305,180847.6,180863.7,186658.5,186658.5,2024-07-30T16:36:50.251Z,186663.7,o0Bxo-wFMk,incremental,anketa,6645cf40bc81b65c5faccf1d,participant,hcpib7dulz8n0n3b,,,,,Komu tužno je gledati da ljudi i dalje daju novac??,Tužno je gledati da ljudi i dalje daju novac šarlatanima..,si,38,33,19,,,
,Spremanje,canvas.Screen,2_14_2,,,,,,skipped,,186658.60000014305,,,186658.5,186658.70000004768,2024-07-30T16:36:50.252Z,186663.7,o0Bxo-wFMk,incremental,anketa,6645cf40bc81b65c5faccf1d,participant,hcpib7dulz8n0n3b,,,,,Komu tužno je gledati da ljudi i dalje daju novac??,Tužno je gledati da ljudi i dalje daju novac šarlatanima..,si,38,33,19,,,
,Question form,html.Form,2_14_3,,,,,,skipped,,186658.79999995232,,,186658.5,186658.79999995232,2024-07-30T16:36:50.252Z,186663.7,o0Bxo-wFMk,incremental,anketa,6645cf40bc81b65c5faccf1d,participant,hcpib7dulz8n0n3b,,,,,Komu tužno je gledati da ljudi i dalje daju novac??,Tužno je gledati da ljudi i dalje daju novac šarlatanima..,si,38,33,19,,,
,Answer indication,canvas.Screen,2_14_4,,,,,,skipped,,186659.40000009537,,,186658.5,186659.40000009537,2024-07-30T16:36:50.252Z,186663.7,o0Bxo-wFMk,incremental,anketa,6645cf40bc81b65c5faccf1d,participant,hcpib7dulz8n0n3b,,,,,Komu tužno je gledati da ljudi i dalje daju novac??,Tužno je gledati da ljudi i dalje daju novac šarlatanima..,si,38,33,19,,,
,inter-stimulus,canvas.Screen,2_14_5,,,,,,response,974.7999999999884,186659.60000014305,186647.6,186663.7,187638.5,187640.29999995232,2024-07-30T16:36:51.233Z,187647.598,o0Bxo-wFMk,incremental,anketa,6645cf40bc81b65c5faccf1d,participant,hcpib7dulz8n0n3b,,,mousedown,,Komu tužno je gledati da ljudi i dalje daju novac??,Tužno je gledati da ljudi i dalje daju novac šarlatanima..,si,38,33,19,,,
,Sequence,flow.Sequence,2_14,,,,,,completion,10057.899999999994,177565.10000014305,177564.16,177580.6,187638.5,187640.5,2024-07-30T16:36:51.233Z,187647.598,o0Bxo-wFMk,incremental,anketa,6645cf40bc81b65c5faccf1d,participant,hcpib7dulz8n0n3b,,,,,Komu tužno je gledati da ljudi i dalje daju novac??,Tužno je gledati da ljudi i dalje daju novac šarlatanima..,si,38,33,19,,,
,context,canvas.Screen,2_15_0_0,,,,,,response,2265.902000000002,187640.79999995232,187647.598,187647.598,189913.5,189914.5,2024-07-30T16:36:53.507Z,189930.3,o0Bxo-wFMk,incremental,anketa,6645cf40bc81b65c5faccf1d,participant,hcpib7dulz8n0n3b,,,click,,"Koliko čega Luka je zaboravio, on mi je posudio?","Luka je zaboravio, koliko mi je novca posudio.",ai,,,28,,,
,Timer frame,html.Frame,2_15_0,,,,,,,2267.002000143053,187640.70000004768,187647.598,187647.598,189914.60000014305,189914.70000004768,2024-07-30T16:36:53.508Z,189930.3,o0Bxo-wFMk,incremental,anketa,6645cf40bc81b65c5faccf1d,participant,hcpib7dulz8n0n3b,,,,,"Koliko čega Luka je zaboravio, on mi je posudio?","Luka je zaboravio, koliko mi je novca posudio.",ai,,,28,,,
,stimulus,canvas.Screen,2_15_1_0,,,,,,response,3607.2000000000116,189914.90000009537,189914.226,189930.3,193537.5,193538.40000009537,2024-07-30T16:36:57.131Z,193547.1,o0Bxo-wFMk,incremental,anketa,6645cf40bc81b65c5faccf1d,participant,hcpib7dulz8n0n3b,,1,click @1,,"Koliko čega Luka je zaboravio, on mi je posudio?","Luka je zaboravio, koliko mi je novca posudio.",ai,,,28,,,
,Timer frame,html.Frame,2_15_1,,,,,,,3608.2000000000116,189914.79999995232,189914.226,189930.3,193538.5,193538.5,2024-07-30T16:36:57.131Z,193547.1,o0Bxo-wFMk,incremental,anketa,6645cf40bc81b65c5faccf1d,participant,hcpib7dulz8n0n3b,,,,,"Koliko čega Luka je zaboravio, on mi je posudio?","Luka je zaboravio, koliko mi je novca posudio.",ai,,,28,,,
,Spremanje,canvas.Screen,2_15_2,,,,,,skipped,,193538.60000014305,,,193538.5,193538.70000004768,2024-07-30T16:36:57.132Z,193547.1,o0Bxo-wFMk,incremental,anketa,6645cf40bc81b65c5faccf1d,participant,hcpib7dulz8n0n3b,,,,,"Koliko čega Luka je zaboravio, on mi je posudio?","Luka je zaboravio, koliko mi je novca posudio.",ai,,,28,,,
,Question form,html.Form,2_15_3,,,,,,skipped,,193538.79999995232,,,193538.5,193538.79999995232,2024-07-30T16:36:57.132Z,193547.1,o0Bxo-wFMk,incremental,anketa,6645cf40bc81b65c5faccf1d,participant,hcpib7dulz8n0n3b,,,,,"Koliko čega Luka je zaboravio, on mi je posudio?","Luka je zaboravio, koliko mi je novca posudio.",ai,,,28,,,
,Answer indication,canvas.Screen,2_15_4,,,,,,skipped,,193539.5,,,193538.5,193539.60000014305,2024-07-30T16:36:57.132Z,193547.1,o0Bxo-wFMk,incremental,anketa,6645cf40bc81b65c5faccf1d,participant,hcpib7dulz8n0n3b,,,,,"Koliko čega Luka je zaboravio, on mi je posudio?","Luka je zaboravio, koliko mi je novca posudio.",ai,,,28,,,
,inter-stimulus,canvas.Screen,2_15_5,,,,,,response,1112.600000047678,193539.60000014305,193530.908,193547.1,194659.70000004768,194661.29999995232,2024-07-30T16:36:58.254Z,194680.5,o0Bxo-wFMk,incremental,anketa,6645cf40bc81b65c5faccf1d,participant,hcpib7dulz8n0n3b,,,mousedown,,"Koliko čega Luka je zaboravio, on mi je posudio?","Luka je zaboravio, koliko mi je novca posudio.",ai,,,28,,,
,Sequence,flow.Sequence,2_15,,,,,,completion,7012.102000047686,187640.70000004768,187647.598,187647.598,194659.70000004768,194661.5,2024-07-30T16:36:58.254Z,194680.5,o0Bxo-wFMk,incremental,anketa,6645cf40bc81b65c5faccf1d,participant,hcpib7dulz8n0n3b,,,,,"Koliko čega Luka je zaboravio, on mi je posudio?","Luka je zaboravio, koliko mi je novca posudio.",ai,,,28,,,
,context,canvas.Screen,2_16_0_0,,,,,,response,2448.7999999523163,194661.90000009537,194664.166,194680.5,197129.29999995232,197130.10000014305,2024-07-30T16:37:00.723Z,197147,o0Bxo-wFMk,incremental,anketa,6645cf40bc81b65c5faccf1d,participant,hcpib7dulz8n0n3b,,,click,,Čega si gledao prepričavanje?,Gledao si prepričavanje filma.,di,,,31,,,
,Timer frame,html.Frame,2_16_0,,,,,,,2449.7000000476837,194661.79999995232,194664.166,194680.5,197130.20000004768,197130.29999995232,2024-07-30T16:37:00.723Z,197147,o0Bxo-wFMk,incremental,anketa,6645cf40bc81b65c5faccf1d,participant,hcpib7dulz8n0n3b,,,,,Čega si gledao prepričavanje?,Gledao si prepričavanje filma.,di,,,31,,,
,stimulus,canvas.Screen,2_16_1_0,,,,,,response,2604.2999999523163,197130.79999995232,197130.46,197147,199751.29999995232,199752.60000014305,2024-07-30T16:37:03.345Z,199764.162,o0Bxo-wFMk,incremental,anketa,6645cf40bc81b65c5faccf1d,participant,hcpib7dulz8n0n3b,,7,click @7,,Čega si gledao prepričavanje?,Gledao si prepričavanje filma.,di,,,31,,,
,Timer frame,html.Frame,2_16_1,,,,,,,2605.600000143051,197130.40000009537,197130.46,197147,199752.60000014305,199752.70000004768,2024-07-30T16:37:03.346Z,199764.162,o0Bxo-wFMk,incremental,anketa,6645cf40bc81b65c5faccf1d,participant,hcpib7dulz8n0n3b,,,,,Čega si gledao prepričavanje?,Gledao si prepričavanje filma.,di,,,31,,,
,Spremanje,canvas.Screen,2_16_2,,,,,,skipped,,199752.79999995232,,,199752.60000014305,199752.90000009537,2024-07-30T16:37:03.346Z,199764.162,o0Bxo-wFMk,incremental,anketa,6645cf40bc81b65c5faccf1d,participant,hcpib7dulz8n0n3b,,,,,Čega si gledao prepričavanje?,Gledao si prepričavanje filma.,di,,,31,,,
,Question form,html.Form,2_16_3,,,,,,skipped,,199752.90000009537,,,199752.60000014305,199753,2024-07-30T16:37:03.346Z,199764.162,o0Bxo-wFMk,incremental,anketa,6645cf40bc81b65c5faccf1d,participant,hcpib7dulz8n0n3b,,,,,Čega si gledao prepričavanje?,Gledao si prepričavanje filma.,di,,,31,,,
,Answer indication,canvas.Screen,2_16_4,,,,,,skipped,,199753.40000009537,,,199752.60000014305,199753.60000014305,2024-07-30T16:37:03.346Z,199764.162,o0Bxo-wFMk,incremental,anketa,6645cf40bc81b65c5faccf1d,participant,hcpib7dulz8n0n3b,,,,,Čega si gledao prepričavanje?,Gledao si prepričavanje filma.,di,,,31,,,
,inter-stimulus,canvas.Screen,2_16_5,,,,,,response,1178.7380000953563,199753.70000004768,199764.162,199764.162,200942.90000009537,200944.90000009537,2024-07-30T16:37:04.538Z,200964.2,o0Bxo-wFMk,incremental,anketa,6645cf40bc81b65c5faccf1d,participant,hcpib7dulz8n0n3b,,,mousedown,,Čega si gledao prepričavanje?,Gledao si prepričavanje filma.,di,,,31,,,
,Sequence,flow.Sequence,2_16,,,,,,completion,6262.400000095367,194661.70000004768,194664.166,194680.5,200942.90000009537,200945.29999995232,2024-07-30T16:37:04.538Z,200964.2,o0Bxo-wFMk,incremental,anketa,6645cf40bc81b65c5faccf1d,participant,hcpib7dulz8n0n3b,,,,,Čega si gledao prepričavanje?,Gledao si prepričavanje filma.,di,,,31,,,
,context,canvas.Screen,2_17_0_0,,,,,,response,1802.9000001430395,200945.70000004768,200947.428,200964.2,202767.10000014305,202767.79999995232,2024-07-30T16:37:06.361Z,202780.2,o0Bxo-wFMk,incremental,anketa,6645cf40bc81b65c5faccf1d,participant,hcpib7dulz8n0n3b,,,click,,Kakva čovjeka svatko tko poznaje može potvrditi njegov integritet??,Svatko tko poznaje onog čovjeka može potvrditi njegov integritet..,si,33,31,12,,,2305
,Timer frame,html.Frame,2_17_0,,,,,,,1803.7999999999884,200945.5,200947.428,200964.2,202768,202768.10000014305,2024-07-30T16:37:06.361Z,202780.2,o0Bxo-wFMk,incremental,anketa,6645cf40bc81b65c5faccf1d,participant,hcpib7dulz8n0n3b,,,,,Kakva čovjeka svatko tko poznaje može potvrditi njegov integritet??,Svatko tko poznaje onog čovjeka može potvrditi njegov integritet..,si,33,31,12,,,2305
,stimulus,canvas.Screen,2_17_1_0,,,,,,response,2036.9000001430395,202768.20000004768,202764,202780.2,204817.10000014305,204817.90000009537,2024-07-30T16:37:08.411Z,204847.2,o0Bxo-wFMk,incremental,anketa,6645cf40bc81b65c5faccf1d,participant,hcpib7dulz8n0n3b,,4,click @4,,Kakva čovjeka svatko tko poznaje može potvrditi njegov integritet??,Svatko tko poznaje onog čovjeka može potvrditi njegov integritet..,si,33,31,12,,,2305
,Timer frame,html.Frame,2_17_1,,,,,,,2037.9000001430395,202768.10000014305,202764,202780.2,204818.10000014305,204818.20000004768,2024-07-30T16:37:08.411Z,204847.2,o0Bxo-wFMk,incremental,anketa,6645cf40bc81b65c5faccf1d,participant,hcpib7dulz8n0n3b,,,,,Kakva čovjeka svatko tko poznaje može potvrditi njegov integritet??,Svatko tko poznaje onog čovjeka može potvrditi njegov integritet..,si,33,31,12,,,2305
,Spremanje,canvas.Screen,2_17_2,,,,,,skipped,,204818.29999995232,,,204818.10000014305,204818.29999995232,2024-07-30T16:37:08.411Z,204847.2,o0Bxo-wFMk,incremental,anketa,6645cf40bc81b65c5faccf1d,participant,hcpib7dulz8n0n3b,,,,,Kakva čovjeka svatko tko poznaje može potvrditi njegov integritet??,Svatko tko poznaje onog čovjeka može potvrditi njegov integritet..,si,33,31,12,,,2305
,Question form,html.Form,2_17_3,,,,,,skipped,,204818.40000009537,,,204818.10000014305,204818.40000009537,2024-07-30T16:37:08.411Z,204847.2,o0Bxo-wFMk,incremental,anketa,6645cf40bc81b65c5faccf1d,participant,hcpib7dulz8n0n3b,,,,,Kakva čovjeka svatko tko poznaje može potvrditi njegov integritet??,Svatko tko poznaje onog čovjeka može potvrditi njegov integritet..,si,33,31,12,,,2305
,Answer indication,canvas.Screen,2_17_4,,,,,,skipped,,204819,,,204818.10000014305,204819.20000004768,2024-07-30T16:37:08.412Z,204847.2,o0Bxo-wFMk,incremental,anketa,6645cf40bc81b65c5faccf1d,participant,hcpib7dulz8n0n3b,,,,,Kakva čovjeka svatko tko poznaje može potvrditi njegov integritet??,Svatko tko poznaje onog čovjeka može potvrditi njegov integritet..,si,33,31,12,,,2305
,inter-stimulus,canvas.Screen,2_17_5,,,,,,response,749.0999999523046,204819.20000004768,204830.3,204847.2,205596.29999995232,205598.60000014305,2024-07-30T16:37:09.191Z,205630.5,o0Bxo-wFMk,incremental,anketa,6645cf40bc81b65c5faccf1d,participant,hcpib7dulz8n0n3b,,,mousedown,,Kakva čovjeka svatko tko poznaje može potvrditi njegov integritet??,Svatko tko poznaje onog čovjeka može potvrditi njegov integritet..,si,33,31,12,,,2305
,Sequence,flow.Sequence,2_17,,,,,,completion,4632.099999952305,200945.5,200947.428,200964.2,205596.29999995232,205598.90000009537,2024-07-30T16:37:09.192Z,205630.5,o0Bxo-wFMk,incremental,anketa,6645cf40bc81b65c5faccf1d,participant,hcpib7dulz8n0n3b,,,,,Kakva čovjeka svatko tko poznaje može potvrditi njegov integritet??,Svatko tko poznaje onog čovjeka može potvrditi njegov integritet..,si,33,31,12,,,2305
,context,canvas.Screen,2_18_0_0,,,,,,response,1546.7000000476837,205599.29999995232,205614.164,205630.5,207177.20000004768,207178.10000014305,2024-07-30T16:37:10.771Z,207180.682,o0Bxo-wFMk,incremental,anketa,6645cf40bc81b65c5faccf1d,participant,hcpib7dulz8n0n3b,,,click,,Što ćemo uništit i saditi vrtove?,Uništit ćemo carstva i saditi vrtove.,csi,0,0,5,,,
,Timer frame,html.Frame,2_18_0,,,,,,,1547.7000000476837,205599.10000014305,205614.164,205630.5,207178.20000004768,207178.20000004768,2024-07-30T16:37:10.771Z,207180.682,o0Bxo-wFMk,incremental,anketa,6645cf40bc81b65c5faccf1d,participant,hcpib7dulz8n0n3b,,,,,Što ćemo uništit i saditi vrtove?,Uništit ćemo carstva i saditi vrtove.,csi,0,0,5,,,
,stimulus,canvas.Screen,2_18_1_0,,,,,,response,2862.9180001430504,207178.40000009537,207180.682,207180.682,210043.60000014305,210044.60000014305,2024-07-30T16:37:13.637Z,210064.5,o0Bxo-wFMk,incremental,anketa,6645cf40bc81b65c5faccf1d,participant,hcpib7dulz8n0n3b,,1,click @1,,Što ćemo uništit i saditi vrtove?,Uništit ćemo carstva i saditi vrtove.,csi,0,0,5,,,
,Timer frame,html.Frame,2_18_1,,,,,,,2864.018000047683,207178.29999995232,207180.682,207180.682,210044.70000004768,210044.79999995232,2024-07-30T16:37:13.638Z,210064.5,o0Bxo-wFMk,incremental,anketa,6645cf40bc81b65c5faccf1d,participant,hcpib7dulz8n0n3b,,,,,Što ćemo uništit i saditi vrtove?,Uništit ćemo carstva i saditi vrtove.,csi,0,0,5,,,
,Spremanje,canvas.Screen,2_18_2,,,,,,skipped,,210044.90000009537,,,210044.70000004768,210044.90000009537,2024-07-30T16:37:13.638Z,210064.5,o0Bxo-wFMk,incremental,anketa,6645cf40bc81b65c5faccf1d,participant,hcpib7dulz8n0n3b,,,,,Što ćemo uništit i saditi vrtove?,Uništit ćemo carstva i saditi vrtove.,csi,0,0,5,,,
,Question form,html.Form,2_18_3,,,,,,skipped,,210044.90000009537,,,210044.70000004768,210045,2024-07-30T16:37:13.638Z,210064.5,o0Bxo-wFMk,incremental,anketa,6645cf40bc81b65c5faccf1d,participant,hcpib7dulz8n0n3b,,,,,Što ćemo uništit i saditi vrtove?,Uništit ćemo carstva i saditi vrtove.,csi,0,0,5,,,
,Answer indication,canvas.Screen,2_18_4,,,,,,skipped,,210045.70000004768,,,210044.70000004768,210045.79999995232,2024-07-30T16:37:13.639Z,210064.5,o0Bxo-wFMk,incremental,anketa,6645cf40bc81b65c5faccf1d,participant,hcpib7dulz8n0n3b,,,,,Što ćemo uništit i saditi vrtove?,Uništit ćemo carstva i saditi vrtove.,csi,0,0,5,,,
,inter-stimulus,canvas.Screen,2_18_5,,,,,,response,1077.2999999523163,210045.90000009537,210030.694,210064.5,211141.79999995232,211143.5,2024-07-30T16:37:14.736Z,211164.1,o0Bxo-wFMk,incremental,anketa,6645cf40bc81b65c5faccf1d,participant,hcpib7dulz8n0n3b,,,mousedown,,Što ćemo uništit i saditi vrtove?,Uništit ćemo carstva i saditi vrtove.,csi,0,0,5,,,
,Sequence,flow.Sequence,2_18,,,,,,completion,5511.299999952316,205599,205614.164,205630.5,211141.79999995232,211143.70000004768,2024-07-30T16:37:14.737Z,211164.1,o0Bxo-wFMk,incremental,anketa,6645cf40bc81b65c5faccf1d,participant,hcpib7dulz8n0n3b,,,,,Što ćemo uništit i saditi vrtove?,Uništit ćemo carstva i saditi vrtove.,csi,0,0,5,,,
,context,canvas.Screen,2_19_0_0,,,,,,response,1933.1999999523105,211144.10000014305,211147.332,211164.1,213097.29999995232,213098.10000014305,2024-07-30T16:37:16.691Z,213113.5,o0Bxo-wFMk,incremental,anketa,6645cf40bc81b65c5faccf1d,participant,hcpib7dulz8n0n3b,,,click,,"Kamo je djevojka razmišljala o slobode, idući?","Djevojka je razmišljala o slobode, idući do mora.",ai,,,23,,,
,Timer frame,html.Frame,2_19_0,,,,,,,1934.100000047678,211143.90000009537,211147.332,211164.1,213098.20000004768,213098.29999995232,2024-07-30T16:37:16.691Z,213113.5,o0Bxo-wFMk,incremental,anketa,6645cf40bc81b65c5faccf1d,participant,hcpib7dulz8n0n3b,,,,,"Kamo je djevojka razmišljala o slobode, idući?","Djevojka je razmišljala o slobode, idući do mora.",ai,,,23,,,
,stimulus,canvas.Screen,2_19_1_0,,,,,,response,1725.6000001430511,213098.5,213096.9,213113.5,214839.10000014305,214839.90000009537,2024-07-30T16:37:18.433Z,214863.7,o0Bxo-wFMk,incremental,anketa,6645cf40bc81b65c5faccf1d,participant,hcpib7dulz8n0n3b,,1,click @1,,"Kamo je djevojka razmišljala o slobode, idući?","Djevojka je razmišljala o slobode, idući do mora.",ai,,,23,,,
,Timer frame,html.Frame,2_19_1,,,,,,,1726.6000001430511,213098.40000009537,213096.9,213113.5,214840.10000014305,214840.10000014305,2024-07-30T16:37:18.433Z,214863.7,o0Bxo-wFMk,incremental,anketa,6645cf40bc81b65c5faccf1d,participant,hcpib7dulz8n0n3b,,,,,"Kamo je djevojka razmišljala o slobode, idući?","Djevojka je razmišljala o slobode, idući do mora.",ai,,,23,,,
,Spremanje,canvas.Screen,2_19_2,,,,,,skipped,,214840.20000004768,,,214840.10000014305,214840.20000004768,2024-07-30T16:37:18.433Z,214863.7,o0Bxo-wFMk,incremental,anketa,6645cf40bc81b65c5faccf1d,participant,hcpib7dulz8n0n3b,,,,,"Kamo je djevojka razmišljala o slobode, idući?","Djevojka je razmišljala o slobode, idući do mora.",ai,,,23,,,
,Question form,html.Form,2_19_3,,,,,,skipped,,214840.20000004768,,,214840.10000014305,214840.40000009537,2024-07-30T16:37:18.433Z,214863.7,o0Bxo-wFMk,incremental,anketa,6645cf40bc81b65c5faccf1d,participant,hcpib7dulz8n0n3b,,,,,"Kamo je djevojka razmišljala o slobode, idući?","Djevojka je razmišljala o slobode, idući do mora.",ai,,,23,,,
,Answer indication,canvas.Screen,2_19_4,,,,,,skipped,,214841,,,214840.10000014305,214841,2024-07-30T16:37:18.434Z,214863.7,o0Bxo-wFMk,incremental,anketa,6645cf40bc81b65c5faccf1d,participant,hcpib7dulz8n0n3b,,,,,"Kamo je djevojka razmišljala o slobode, idući?","Djevojka je razmišljala o slobode, idući do mora.",ai,,,23,,,
,inter-stimulus,canvas.Screen,2_19_5,,,,,,response,958.2999999999884,214841,214847.4,214863.7,215822,215823.70000004768,2024-07-30T16:37:19.417Z,215830.662,o0Bxo-wFMk,incremental,anketa,6645cf40bc81b65c5faccf1d,participant,hcpib7dulz8n0n3b,,,mousedown,,"Kamo je djevojka razmišljala o slobode, idući?","Djevojka je razmišljala o slobode, idući do mora.",ai,,,23,,,
,Sequence,flow.Sequence,2_19,,,,,,completion,4657.899999999994,211143.90000009537,211147.332,211164.1,215822,215824,2024-07-30T16:37:19.417Z,215830.662,o0Bxo-wFMk,incremental,anketa,6645cf40bc81b65c5faccf1d,participant,hcpib7dulz8n0n3b,,,,,"Kamo je djevojka razmišljala o slobode, idući?","Djevojka je razmišljala o slobode, idući do mora.",ai,,,23,,,
,context,canvas.Screen,2_20_0_0,,,,,,response,1816.3379999999888,215824.40000009537,215830.662,215830.662,217647,217647.90000009537,2024-07-30T16:37:21.241Z,217664.1,o0Bxo-wFMk,incremental,anketa,6645cf40bc81b65c5faccf1d,participant,hcpib7dulz8n0n3b,,,click,,Stare su samo Čehovljeve priče bile u ovoj knjižnici..,Samo su Čehovljeve priče bile stare u ovoj knjižnici..,di,35,35,33,,,
,Timer frame,html.Frame,2_20_0,,,,,,,1817.43800014304,215824.10000014305,215830.662,215830.662,217648.10000014305,217648.10000014305,2024-07-30T16:37:21.241Z,217664.1,o0Bxo-wFMk,incremental,anketa,6645cf40bc81b65c5faccf1d,participant,hcpib7dulz8n0n3b,,,,,Stare su samo Čehovljeve priče bile u ovoj knjižnici..,Samo su Čehovljeve priče bile stare u ovoj knjižnici..,di,35,35,33,,,
,stimulus,canvas.Screen,2_20_1_0,,,,,,response,2427.899999999994,217648.40000009537,217647.256,217664.1,220092,220093.10000014305,2024-07-30T16:37:23.686Z,220113.5,o0Bxo-wFMk,incremental,anketa,6645cf40bc81b65c5faccf1d,participant,hcpib7dulz8n0n3b,,1,click @1,,Stare su samo Čehovljeve priče bile u ovoj knjižnici..,Samo su Čehovljeve priče bile stare u ovoj knjižnici..,di,35,35,33,,,
,Timer frame,html.Frame,2_20_1,,,,,,,2429.1999999523105,217648.20000004768,217647.256,217664.1,220093.29999995232,220093.29999995232,2024-07-30T16:37:23.686Z,220113.5,o0Bxo-wFMk,incremental,anketa,6645cf40bc81b65c5faccf1d,participant,hcpib7dulz8n0n3b,,,,,Stare su samo Čehovljeve priče bile u ovoj knjižnici..,Samo su Čehovljeve priče bile stare u ovoj knjižnici..,di,35,35,33,,,
,Spremanje,canvas.Screen,2_20_2,,,,,,skipped,,220093.40000009537,,,220093.29999995232,220093.40000009537,2024-07-30T16:37:23.686Z,220113.5,o0Bxo-wFMk,incremental,anketa,6645cf40bc81b65c5faccf1d,participant,hcpib7dulz8n0n3b,,,,,Stare su samo Čehovljeve priče bile u ovoj knjižnici..,Samo su Čehovljeve priče bile stare u ovoj knjižnici..,di,35,35,33,,,
,Question form,html.Form,2_20_3,,,,,,skipped,,220093.5,,,220093.29999995232,220093.5,2024-07-30T16:37:23.686Z,220113.5,o0Bxo-wFMk,incremental,anketa,6645cf40bc81b65c5faccf1d,participant,hcpib7dulz8n0n3b,,,,,Stare su samo Čehovljeve priče bile u ovoj knjižnici..,Samo su Čehovljeve priče bile stare u ovoj knjižnici..,di,35,35,33,,,
,Answer indication,canvas.Screen,2_20_4,,,,,,skipped,,220094.20000004768,,,220093.29999995232,220094.29999995232,2024-07-30T16:37:23.687Z,220113.5,o0Bxo-wFMk,incremental,anketa,6645cf40bc81b65c5faccf1d,participant,hcpib7dulz8n0n3b,,,,,Stare su samo Čehovljeve priče bile u ovoj knjižnici..,Samo su Čehovljeve priče bile stare u ovoj knjižnici..,di,35,35,33,,,
,inter-stimulus,canvas.Screen,2_20_5,,,,,,response,659.6000001430511,220094.40000009537,220096.9,220113.5,220773.10000014305,220774.70000004768,2024-07-30T16:37:24.368Z,220780.8,o0Bxo-wFMk,incremental,anketa,6645cf40bc81b65c5faccf1d,participant,hcpib7dulz8n0n3b,,,mousedown,,Stare su samo Čehovljeve priče bile u ovoj knjižnici..,Samo su Čehovljeve priče bile stare u ovoj knjižnici..,di,35,35,33,,,
,Sequence,flow.Sequence,2_20,,,,,,completion,4942.43800014304,215824.10000014305,215830.662,215830.662,220773.10000014305,220775,2024-07-30T16:37:24.368Z,220780.8,o0Bxo-wFMk,incremental,anketa,6645cf40bc81b65c5faccf1d,participant,hcpib7dulz8n0n3b,,,,,Stare su samo Čehovljeve priče bile u ovoj knjižnici..,Samo su Čehovljeve priče bile stare u ovoj knjižnici..,di,35,35,33,,,
,context,canvas.Screen,2_21_0_0,,,,,,response,1576.7000000000116,220775.29999995232,220764,220780.8,222357.5,222358.40000009537,2024-07-30T16:37:25.951Z,222363.4,o0Bxo-wFMk,incremental,anketa,6645cf40bc81b65c5faccf1d,participant,hcpib7dulz8n0n3b,,,click,,Tko je jučer susjedu ukrao kobasicu?,Jučer je riđa mačka susjedu ukrala kobasicu.,gf,,,50,KOBASICU; KOBASICA,Što je ukrala mačka?,
,Timer frame,html.Frame,2_21_0,,,,,,,1577.7000000000116,220775.10000014305,220764,220780.8,222358.5,222358.5,2024-07-30T16:37:25.951Z,222363.4,o0Bxo-wFMk,incremental,anketa,6645cf40bc81b65c5faccf1d,participant,hcpib7dulz8n0n3b,,,,,Tko je jučer susjedu ukrao kobasicu?,Jučer je riđa mačka susjedu ukrala kobasicu.,gf,,,50,KOBASICU; KOBASICA,Što je ukrala mačka?,
,stimulus,canvas.Screen,2_21_1_0,,,,,,response,1987.399999952322,222358.70000004768,222347.314,222363.4,224350.79999995232,224351.79999995232,2024-07-30T16:37:27.945Z,224363.4,o0Bxo-wFMk,incremental,anketa,6645cf40bc81b65c5faccf1d,participant,hcpib7dulz8n0n3b,,7,click @7,,Tko je jučer susjedu ukrao kobasicu?,Jučer je riđa mačka susjedu ukrala kobasicu.,gf,,,50,KOBASICU; KOBASICA,Što je ukrala mačka?,
,Timer frame,html.Frame,2_21_1,,,,,,,1988.399999952322,222358.60000014305,222347.314,222363.4,224351.79999995232,224351.90000009537,2024-07-30T16:37:27.945Z,224363.4,o0Bxo-wFMk,incremental,anketa,6645cf40bc81b65c5faccf1d,participant,hcpib7dulz8n0n3b,,,,,Tko je jučer susjedu ukrao kobasicu?,Jučer je riđa mačka susjedu ukrala kobasicu.,gf,,,50,KOBASICU; KOBASICA,Što je ukrala mačka?,
,Spremanje,canvas.Screen,2_21_2,,,,,,response,1294.399999952322,224352,224347.3,224363.4,225657.79999995232,225659.79999995232,2024-07-30T16:37:29.253Z,225680.3,o0Bxo-wFMk,incremental,anketa,6645cf40bc81b65c5faccf1d,participant,hcpib7dulz8n0n3b,,,mousedown,,Tko je jučer susjedu ukrao kobasicu?,Jučer je riđa mačka susjedu ukrala kobasicu.,gf,,,50,KOBASICU; KOBASICA,Što je ukrala mačka?,
,Question form,html.Form,2_21_3,,,,,,form submission,5304.200000000012,225660.20000004768,225664.78,225680.3,230984.5,230984.90000009537,2024-07-30T16:37:34.578Z,230996.7,o0Bxo-wFMk,incremental,anketa,6645cf40bc81b65c5faccf1d,participant,hcpib7dulz8n0n3b,,,,kobasicu,Tko je jučer susjedu ukrao kobasicu?,Jučer je riđa mačka susjedu ukrala kobasicu.,gf,,,50,KOBASICU; KOBASICA,Što je ukrala mačka?,
,Answer indication,canvas.Screen,2_21_4,,,,,,response,1331.7999999999884,230986,230980.6,230996.7,232328.5,232330.60000014305,2024-07-30T16:37:35.923Z,232347.3,o0Bxo-wFMk,incremental,anketa,6645cf40bc81b65c5faccf1d,participant,hcpib7dulz8n0n3b,,,mousedown,,Tko je jučer susjedu ukrao kobasicu?,Jučer je riđa mačka susjedu ukrala kobasicu.,gf,,,50,KOBASICU; KOBASICA,Što je ukrala mačka?,
,inter-stimulus,canvas.Screen,2_21_5,,,,,,response,632.8000001430628,232330.90000009537,232330.63,232347.3,232980.10000014305,232982.10000014305,2024-07-30T16:37:36.575Z,232997,o0Bxo-wFMk,incremental,anketa,6645cf40bc81b65c5faccf1d,participant,hcpib7dulz8n0n3b,,,mousedown,,Tko je jučer susjedu ukrao kobasicu?,Jučer je riđa mačka susjedu ukrala kobasicu.,gf,,,50,KOBASICU; KOBASICA,Što je ukrala mačka?,
,Sequence,flow.Sequence,2_21,,,,,,completion,12199.300000143063,220775.10000014305,220764,220780.8,232980.10000014305,232982.5,2024-07-30T16:37:36.575Z,232997,o0Bxo-wFMk,incremental,anketa,6645cf40bc81b65c5faccf1d,participant,hcpib7dulz8n0n3b,,,,,Tko je jučer susjedu ukrao kobasicu?,Jučer je riđa mačka susjedu ukrala kobasicu.,gf,,,50,KOBASICU; KOBASICA,Što je ukrala mačka?,
,context,canvas.Screen,2_22_0_0,,,,,,response,2318,232982.90000009537,232980.6,232997,235315,235315.79999995232,2024-07-30T16:37:38.909Z,235347.1,o0Bxo-wFMk,incremental,anketa,6645cf40bc81b65c5faccf1d,participant,hcpib7dulz8n0n3b,,,click,,Kakav sam vidio barku u oceanu?,Vidio sam bijelu barku u oceanu.,nf,,,41,,,2305
,Timer frame,html.Frame,2_22_0,,,,,,,2318.9000000953674,232982.70000004768,232980.6,232997,235315.90000009537,235316,2024-07-30T16:37:38.909Z,235347.1,o0Bxo-wFMk,incremental,anketa,6645cf40bc81b65c5faccf1d,participant,hcpib7dulz8n0n3b,,,,,Kakav sam vidio barku u oceanu?,Vidio sam bijelu barku u oceanu.,nf,,,41,,,2305
,stimulus,canvas.Screen,2_22_1_0,,,,,,response,1824.0000001430453,235316.20000004768,235330.2,235347.1,237171.10000014305,237172,2024-07-30T16:37:40.765Z,237196.6,o0Bxo-wFMk,incremental,anketa,6645cf40bc81b65c5faccf1d,participant,hcpib7dulz8n0n3b,,1,click @1,,Kakav sam vidio barku u oceanu?,Vidio sam bijelu barku u oceanu.,nf,,,41,,,2305
,Timer frame,html.Frame,2_22_1,,,,,,,1824.8999999999942,235316.10000014305,235330.2,235347.1,237172,237172,2024-07-30T16:37:40.765Z,237196.6,o0Bxo-wFMk,incremental,anketa,6645cf40bc81b65c5faccf1d,participant,hcpib7dulz8n0n3b,,,,,Kakav sam vidio barku u oceanu?,Vidio sam bijelu barku u oceanu.,nf,,,41,,,2305
,Spremanje,canvas.Screen,2_22_2,,,,,,skipped,,237172.10000014305,,,237172,237172.20000004768,2024-07-30T16:37:40.765Z,237196.6,o0Bxo-wFMk,incremental,anketa,6645cf40bc81b65c5faccf1d,participant,hcpib7dulz8n0n3b,,,,,Kakav sam vidio barku u oceanu?,Vidio sam bijelu barku u oceanu.,nf,,,41,,,2305
,Question form,html.Form,2_22_3,,,,,,skipped,,237172.20000004768,,,237172,237172.40000009537,2024-07-30T16:37:40.765Z,237196.6,o0Bxo-wFMk,incremental,anketa,6645cf40bc81b65c5faccf1d,participant,hcpib7dulz8n0n3b,,,,,Kakav sam vidio barku u oceanu?,Vidio sam bijelu barku u oceanu.,nf,,,41,,,2305
,Answer indication,canvas.Screen,2_22_4,,,,,,skipped,,237172.90000009537,,,237172,237173,2024-07-30T16:37:40.766Z,237196.6,o0Bxo-wFMk,incremental,anketa,6645cf40bc81b65c5faccf1d,participant,hcpib7dulz8n0n3b,,,,,Kakav sam vidio barku u oceanu?,Vidio sam bijelu barku u oceanu.,nf,,,41,,,2305
,inter-stimulus,canvas.Screen,2_22_5,,,,,,response,970.8000000953616,237173.10000014305,237180.464,237196.6,238167.40000009537,238169.40000009537,2024-07-30T16:37:41.762Z,238196.8,o0Bxo-wFMk,incremental,anketa,6645cf40bc81b65c5faccf1d,participant,hcpib7dulz8n0n3b,,,mousedown,,Kakav sam vidio barku u oceanu?,Vidio sam bijelu barku u oceanu.,nf,,,41,,,2305
,Sequence,flow.Sequence,2_22,,,,,,completion,5170.400000095367,232982.60000014305,232980.6,232997,238167.40000009537,238169.79999995232,2024-07-30T16:37:41.763Z,238196.8,o0Bxo-wFMk,incremental,anketa,6645cf40bc81b65c5faccf1d,participant,hcpib7dulz8n0n3b,,,,,Kakav sam vidio barku u oceanu?,Vidio sam bijelu barku u oceanu.,nf,,,41,,,2305
,context,canvas.Screen,2_23_0_0,,,,,,response,3740.7000000000116,238170.10000014305,238180.498,238196.8,241937.5,241938.29999995232,2024-07-30T16:37:45.531Z,241946.7,o0Bxo-wFMk,incremental,anketa,6645cf40bc81b65c5faccf1d,participant,hcpib7dulz8n0n3b,,,click,,"Što žele da Ivan pripremi, a Nikola da posprema kuću??","Žele da Ivan pripremi juhu, a Nikola da posprema kuću..",csi,26,27,3,,,
,Timer frame,html.Frame,2_23_0,,,,,,,3741.7000000000116,238170,238180.498,238196.8,241938.5,241938.60000014305,2024-07-30T16:37:45.532Z,241946.7,o0Bxo-wFMk,incremental,anketa,6645cf40bc81b65c5faccf1d,participant,hcpib7dulz8n0n3b,,,,,"Što žele da Ivan pripremi, a Nikola da posprema kuću??","Žele da Ivan pripremi juhu, a Nikola da posprema kuću..",csi,26,27,3,,,
,stimulus,canvas.Screen,2_23_1_0,,,,,,response,2432.5999999523046,241938.70000004768,241930.54,241946.7,244379.29999995232,244380.5,2024-07-30T16:37:47.973Z,244413.4,o0Bxo-wFMk,incremental,anketa,6645cf40bc81b65c5faccf1d,participant,hcpib7dulz8n0n3b,,1,click @1,,"Što žele da Ivan pripremi, a Nikola da posprema kuću??","Žele da Ivan pripremi juhu, a Nikola da posprema kuću..",csi,26,27,3,,,
,Timer frame,html.Frame,2_23_1,,,,,,,2434.000000047672,241938.60000014305,241930.54,241946.7,244380.70000004768,244380.79999995232,2024-07-30T16:37:47.974Z,244413.4,o0Bxo-wFMk,incremental,anketa,6645cf40bc81b65c5faccf1d,participant,hcpib7dulz8n0n3b,,,,,"Što žele da Ivan pripremi, a Nikola da posprema kuću??","Žele da Ivan pripremi juhu, a Nikola da posprema kuću..",csi,26,27,3,,,
,Spremanje,canvas.Screen,2_23_2,,,,,,skipped,,244380.90000009537,,,244380.70000004768,244381,2024-07-30T16:37:47.974Z,244413.4,o0Bxo-wFMk,incremental,anketa,6645cf40bc81b65c5faccf1d,participant,hcpib7dulz8n0n3b,,,,,"Što žele da Ivan pripremi, a Nikola da posprema kuću??","Žele da Ivan pripremi juhu, a Nikola da posprema kuću..",csi,26,27,3,,,
,Question form,html.Form,2_23_3,,,,,,skipped,,244381.10000014305,,,244380.70000004768,244381.20000004768,2024-07-30T16:37:47.974Z,244413.4,o0Bxo-wFMk,incremental,anketa,6645cf40bc81b65c5faccf1d,participant,hcpib7dulz8n0n3b,,,,,"Što žele da Ivan pripremi, a Nikola da posprema kuću??","Žele da Ivan pripremi juhu, a Nikola da posprema kuću..",csi,26,27,3,,,
,Answer indication,canvas.Screen,2_23_4,,,,,,skipped,,244382,,,244380.70000004768,244382,2024-07-30T16:37:47.975Z,244413.4,o0Bxo-wFMk,incremental,anketa,6645cf40bc81b65c5faccf1d,participant,hcpib7dulz8n0n3b,,,,,"Što žele da Ivan pripremi, a Nikola da posprema kuću??","Žele da Ivan pripremi juhu, a Nikola da posprema kuću..",csi,26,27,3,,,
,inter-stimulus,canvas.Screen,2_23_5,,,,,,response,1114.6000000000058,244382.10000014305,244397.188,244413.4,245528,245529.70000004768,2024-07-30T16:37:49.123Z,245547.1,o0Bxo-wFMk,incremental,anketa,6645cf40bc81b65c5faccf1d,participant,hcpib7dulz8n0n3b,,,mousedown,,"Što žele da Ivan pripremi, a Nikola da posprema kuću??","Žele da Ivan pripremi juhu, a Nikola da posprema kuću..",csi,26,27,3,,,
,Sequence,flow.Sequence,2_23,,,,,,completion,7331.200000000012,238169.90000009537,238180.498,238196.8,245528,245530.10000014305,2024-07-30T16:37:49.123Z,245547.1,o0Bxo-wFMk,incremental,anketa,6645cf40bc81b65c5faccf1d,participant,hcpib7dulz8n0n3b,,,,,"Što žele da Ivan pripremi, a Nikola da posprema kuću??","Žele da Ivan pripremi juhu, a Nikola da posprema kuću..",csi,26,27,3,,,
,context,canvas.Screen,2_24_0_0,,,,,,response,1256.5000001430453,245530.60000014305,245530.5,245547.1,246803.60000014305,246804.29999995232,2024-07-30T16:37:50.397Z,246813.806,o0Bxo-wFMk,incremental,anketa,6645cf40bc81b65c5faccf1d,participant,hcpib7dulz8n0n3b,,,click,,Kakve izgrađene u viktorijansko doba te zgrade su izgrađene??,Te su zgrade izgrađene u viktorijansko doba.,nf,36,,43,,,
,Timer frame,html.Frame,2_24_0,,,,,,,1257.3999999999942,245530.20000004768,245530.5,245547.1,246804.5,246804.60000014305,2024-07-30T16:37:50.398Z,246813.806,o0Bxo-wFMk,incremental,anketa,6645cf40bc81b65c5faccf1d,participant,hcpib7dulz8n0n3b,,,,,Kakve izgrađene u viktorijansko doba te zgrade su izgrađene??,Te su zgrade izgrađene u viktorijansko doba.,nf,36,,43,,,
,stimulus,canvas.Screen,2_24_1_0,,,,,,response,2685.493999952305,246804.79999995232,246813.806,246813.806,249499.29999995232,249500.20000004768,2024-07-30T16:37:53.093Z,249513.4,o0Bxo-wFMk,incremental,anketa,6645cf40bc81b65c5faccf1d,participant,hcpib7dulz8n0n3b,,1,click @1,,Kakve izgrađene u viktorijansko doba te zgrade su izgrađene??,Te su zgrade izgrađene u viktorijansko doba.,nf,36,,43,,,
,Timer frame,html.Frame,2_24_1,,,,,,,2686.493999952305,246804.60000014305,246813.806,246813.806,249500.29999995232,249500.40000009537,2024-07-30T16:37:53.093Z,249513.4,o0Bxo-wFMk,incremental,anketa,6645cf40bc81b65c5faccf1d,participant,hcpib7dulz8n0n3b,,,,,Kakve izgrađene u viktorijansko doba te zgrade su izgrađene??,Te su zgrade izgrađene u viktorijansko doba.,nf,36,,43,,,
,Spremanje,canvas.Screen,2_24_2,,,,,,skipped,,249500.5,,,249500.29999995232,249500.5,2024-07-30T16:37:53.094Z,249513.4,o0Bxo-wFMk,incremental,anketa,6645cf40bc81b65c5faccf1d,participant,hcpib7dulz8n0n3b,,,,,Kakve izgrađene u viktorijansko doba te zgrade su izgrađene??,Te su zgrade izgrađene u viktorijansko doba.,nf,36,,43,,,
,Question form,html.Form,2_24_3,,,,,,skipped,,249500.60000014305,,,249500.29999995232,249500.70000004768,2024-07-30T16:37:53.094Z,249513.4,o0Bxo-wFMk,incremental,anketa,6645cf40bc81b65c5faccf1d,participant,hcpib7dulz8n0n3b,,,,,Kakve izgrađene u viktorijansko doba te zgrade su izgrađene??,Te su zgrade izgrađene u viktorijansko doba.,nf,36,,43,,,
,Answer indication,canvas.Screen,2_24_4,,,,,,skipped,,249501.20000004768,,,249500.29999995232,249501.40000009537,2024-07-30T16:37:53.094Z,249513.4,o0Bxo-wFMk,incremental,anketa,6645cf40bc81b65c5faccf1d,participant,hcpib7dulz8n0n3b,,,,,Kakve izgrađene u viktorijansko doba te zgrade su izgrađene??,Te su zgrade izgrađene u viktorijansko doba.,nf,36,,43,,,
,inter-stimulus,canvas.Screen,2_24_5,,,,,,response,887.8999999523221,249501.40000009537,249497.162,249513.4,250401.29999995232,250402.90000009537,2024-07-30T16:37:53.996Z,250413.4,o0Bxo-wFMk,incremental,anketa,6645cf40bc81b65c5faccf1d,participant,hcpib7dulz8n0n3b,,,mousedown,,Kakve izgrađene u viktorijansko doba te zgrade su izgrađene??,Te su zgrade izgrađene u viktorijansko doba.,nf,36,,43,,,
,Sequence,flow.Sequence,2_24,,,,,,completion,4854.1999999523105,245530.10000014305,245530.5,245547.1,250401.29999995232,250403.29999995232,2024-07-30T16:37:53.996Z,250413.4,o0Bxo-wFMk,incremental,anketa,6645cf40bc81b65c5faccf1d,participant,hcpib7dulz8n0n3b,,,,,Kakve izgrađene u viktorijansko doba te zgrade su izgrađene??,Te su zgrade izgrađene u viktorijansko doba.,nf,36,,43,,,
,context,canvas.Screen,2_25_0_0,,,,,,response,1253.899999952322,250403.60000014305,250397.162,250413.4,251667.29999995232,251668.10000014305,2024-07-30T16:37:55.261Z,251680,o0Bxo-wFMk,incremental,anketa,6645cf40bc81b65c5faccf1d,participant,hcpib7dulz8n0n3b,,,click,,Kad je Lena pronašla honorarni posao?,Lena je pronašla honorarni posao ubrzo nakon praznika..,gf,,32,51,,,
,Timer frame,html.Frame,2_25_0,,,,,,,1254.8000000476895,250403.40000009537,250397.162,250413.4,251668.20000004768,251668.20000004768,2024-07-30T16:37:55.261Z,251680,o0Bxo-wFMk,incremental,anketa,6645cf40bc81b65c5faccf1d,participant,hcpib7dulz8n0n3b,,,,,Kad je Lena pronašla honorarni posao?,Lena je pronašla honorarni posao ubrzo nakon praznika..,gf,,32,51,,,
,stimulus,canvas.Screen,2_25_1_0,,,,,,response,1917.7000000476837,251668.40000009537,251663.836,251680,253597.70000004768,253598.60000014305,2024-07-30T16:37:57.192Z,253630,o0Bxo-wFMk,incremental,anketa,6645cf40bc81b65c5faccf1d,participant,hcpib7dulz8n0n3b,,7,click @7,,Kad je Lena pronašla honorarni posao?,Lena je pronašla honorarni posao ubrzo nakon praznika..,gf,,32,51,,,
,Timer frame,html.Frame,2_25_1,,,,,,,1918.7999999523163,251668.29999995232,251663.836,251680,253598.79999995232,253598.79999995232,2024-07-30T16:37:57.192Z,253630,o0Bxo-wFMk,incremental,anketa,6645cf40bc81b65c5faccf1d,participant,hcpib7dulz8n0n3b,,,,,Kad je Lena pronašla honorarni posao?,Lena je pronašla honorarni posao ubrzo nakon praznika..,gf,,32,51,,,
,Spremanje,canvas.Screen,2_25_2,,,,,,skipped,,253598.90000009537,,,253598.79999995232,253598.90000009537,2024-07-30T16:37:57.192Z,253630,o0Bxo-wFMk,incremental,anketa,6645cf40bc81b65c5faccf1d,participant,hcpib7dulz8n0n3b,,,,,Kad je Lena pronašla honorarni posao?,Lena je pronašla honorarni posao ubrzo nakon praznika..,gf,,32,51,,,
,Question form,html.Form,2_25_3,,,,,,skipped,,253599,,,253598.79999995232,253599,2024-07-30T16:37:57.192Z,253630,o0Bxo-wFMk,incremental,anketa,6645cf40bc81b65c5faccf1d,participant,hcpib7dulz8n0n3b,,,,,Kad je Lena pronašla honorarni posao?,Lena je pronašla honorarni posao ubrzo nakon praznika..,gf,,32,51,,,
,Answer indication,canvas.Screen,2_25_4,,,,,,skipped,,253599.60000014305,,,253598.79999995232,253599.60000014305,2024-07-30T16:37:57.193Z,253630,o0Bxo-wFMk,incremental,anketa,6645cf40bc81b65c5faccf1d,participant,hcpib7dulz8n0n3b,,,,,Kad je Lena pronašla honorarni posao?,Lena je pronašla honorarni posao ubrzo nakon praznika..,gf,,32,51,,,
,inter-stimulus,canvas.Screen,2_25_5,,,,,,response,797.1000001430511,253599.79999995232,253613.798,253630,254427.10000014305,254428.70000004768,2024-07-30T16:37:58.022Z,254447.098,o0Bxo-wFMk,incremental,anketa,6645cf40bc81b65c5faccf1d,participant,hcpib7dulz8n0n3b,,,mousedown,,Kad je Lena pronašla honorarni posao?,Lena je pronašla honorarni posao ubrzo nakon praznika..,gf,,32,51,,,
,Sequence,flow.Sequence,2_25,,,,,,completion,4013.700000143057,250403.40000009537,250397.162,250413.4,254427.10000014305,254428.90000009537,2024-07-30T16:37:58.022Z,254447.098,o0Bxo-wFMk,incremental,anketa,6645cf40bc81b65c5faccf1d,participant,hcpib7dulz8n0n3b,,,,,Kad je Lena pronašla honorarni posao?,Lena je pronašla honorarni posao ubrzo nakon praznika..,gf,,32,51,,,
,context,canvas.Screen,2_26_0_0,,,,,,response,1196.502000143053,254429.40000009537,254447.098,254447.098,255643.60000014305,255644.40000009537,2024-07-30T16:37:59.237Z,255663.4,o0Bxo-wFMk,incremental,anketa,6645cf40bc81b65c5faccf1d,participant,hcpib7dulz8n0n3b,,,click,,U sutra ne samo svatko jedan može gledati.,Ne može svatko gledati u sutra.,nf,,,45,,,
,Timer frame,html.Frame,2_26_0,,,,,,,1197.4020000000019,254429.20000004768,254447.098,254447.098,255644.5,255644.70000004768,2024-07-30T16:37:59.238Z,255663.4,o0Bxo-wFMk,incremental,anketa,6645cf40bc81b65c5faccf1d,participant,hcpib7dulz8n0n3b,,,,,U sutra ne samo svatko jedan može gledati.,Ne može svatko gledati u sutra.,nf,,,45,,,
,stimulus,canvas.Screen,2_26_1_0,,,,,,response,3007.8000000476895,255644.79999995232,255646.6,255663.4,258671.20000004768,258672.10000014305,2024-07-30T16:38:02.265Z,258679.8,o0Bxo-wFMk,incremental,anketa,6645cf40bc81b65c5faccf1d,participant,hcpib7dulz8n0n3b,,1,click @1,,U sutra ne samo svatko jedan može gledati.,Ne može svatko gledati u sutra.,nf,,,45,,,
,Timer frame,html.Frame,2_26_1,,,,,,,3008.8000000476895,255644.70000004768,255646.6,255663.4,258672.20000004768,258672.29999995232,2024-07-30T16:38:02.265Z,258679.8,o0Bxo-wFMk,incremental,anketa,6645cf40bc81b65c5faccf1d,participant,hcpib7dulz8n0n3b,,,,,U sutra ne samo svatko jedan može gledati.,Ne može svatko gledati u sutra.,nf,,,45,,,
,Spremanje,canvas.Screen,2_26_2,,,,,,skipped,,258672.29999995232,,,258672.20000004768,258672.29999995232,2024-07-30T16:38:02.265Z,258679.8,o0Bxo-wFMk,incremental,anketa,6645cf40bc81b65c5faccf1d,participant,hcpib7dulz8n0n3b,,,,,U sutra ne samo svatko jedan može gledati.,Ne može svatko gledati u sutra.,nf,,,45,,,
,Question form,html.Form,2_26_3,,,,,,skipped,,258672.5,,,258672.20000004768,258672.5,2024-07-30T16:38:02.266Z,258679.8,o0Bxo-wFMk,incremental,anketa,6645cf40bc81b65c5faccf1d,participant,hcpib7dulz8n0n3b,,,,,U sutra ne samo svatko jedan može gledati.,Ne može svatko gledati u sutra.,nf,,,45,,,
,Answer indication,canvas.Screen,2_26_4,,,,,,skipped,,258673.10000014305,,,258672.20000004768,258673.20000004768,2024-07-30T16:38:02.266Z,258679.8,o0Bxo-wFMk,incremental,anketa,6645cf40bc81b65c5faccf1d,participant,hcpib7dulz8n0n3b,,,,,U sutra ne samo svatko jedan može gledati.,Ne može svatko gledati u sutra.,nf,,,45,,,
,inter-stimulus,canvas.Screen,2_26_5,,,,,,response,814.9999999523279,258673.29999995232,258663.7,258679.8,259494.79999995232,259497.10000014305,2024-07-30T16:38:03.090Z,259530.1,o0Bxo-wFMk,incremental,anketa,6645cf40bc81b65c5faccf1d,participant,hcpib7dulz8n0n3b,,,mousedown,,U sutra ne samo svatko jedan može gledati.,Ne može svatko gledati u sutra.,nf,,,45,,,
,Sequence,flow.Sequence,2_26,,,,,,completion,5047.701999952318,254429.10000014305,254447.098,254447.098,259494.79999995232,259497.5,2024-07-30T16:38:03.091Z,259530.1,o0Bxo-wFMk,incremental,anketa,6645cf40bc81b65c5faccf1d,participant,hcpib7dulz8n0n3b,,,,,U sutra ne samo svatko jedan može gledati.,Ne može svatko gledati u sutra.,nf,,,45,,,
,context,canvas.Screen,2_27_0_0,,,,,,response,5893.1999999523105,259497.90000009537,259513.698,259530.1,265423.2999999523,265424.10000014305,2024-07-30T16:38:09.017Z,265429.8,o0Bxo-wFMk,incremental,anketa,6645cf40bc81b65c5faccf1d,participant,hcpib7dulz8n0n3b,,,click,,Što mama hvali kćer koja je u školi dobila?,Mama hvali kćer koja je u školi dobila peticu.,cnp,,,11,,,
,Timer frame,html.Frame,2_27_0,,,,,,,5894.100000047678,259497.70000004768,259513.698,259530.1,265424.2000000477,265424.2999999523,2024-07-30T16:38:09.017Z,265429.8,o0Bxo-wFMk,incremental,anketa,6645cf40bc81b65c5faccf1d,participant,hcpib7dulz8n0n3b,,,,,Što mama hvali kćer koja je u školi dobila?,Mama hvali kćer koja je u školi dobila peticu.,cnp,,,11,,,
,stimulus,canvas.Screen,2_27_1_0,,,,,,response,1847.8000001430628,265424.40000009537,265413.7,265429.8,267277.60000014305,267278.60000014305,2024-07-30T16:38:10.872Z,267296.4,o0Bxo-wFMk,incremental,anketa,6645cf40bc81b65c5faccf1d,participant,hcpib7dulz8n0n3b,,1,click @1,,Što mama hvali kćer koja je u školi dobila?,Mama hvali kćer koja je u školi dobila peticu.,cnp,,,11,,,
,Timer frame,html.Frame,2_27_1,,,,,,,1848.999999952328,265424.40000009537,265413.7,265429.8,267278.7999999523,267278.90000009537,2024-07-30T16:38:10.872Z,267296.4,o0Bxo-wFMk,incremental,anketa,6645cf40bc81b65c5faccf1d,participant,hcpib7dulz8n0n3b,,,,,Što mama hvali kćer koja je u školi dobila?,Mama hvali kćer koja je u školi dobila peticu.,cnp,,,11,,,
,Spremanje,canvas.Screen,2_27_2,,,,,,skipped,,267279,,,267278.7999999523,267279,2024-07-30T16:38:10.872Z,267296.4,o0Bxo-wFMk,incremental,anketa,6645cf40bc81b65c5faccf1d,participant,hcpib7dulz8n0n3b,,,,,Što mama hvali kćer koja je u školi dobila?,Mama hvali kćer koja je u školi dobila peticu.,cnp,,,11,,,
,Question form,html.Form,2_27_3,,,,,,skipped,,267279.10000014305,,,267278.7999999523,267279.2000000477,2024-07-30T16:38:10.872Z,267296.4,o0Bxo-wFMk,incremental,anketa,6645cf40bc81b65c5faccf1d,participant,hcpib7dulz8n0n3b,,,,,Što mama hvali kćer koja je u školi dobila?,Mama hvali kćer koja je u školi dobila peticu.,cnp,,,11,,,
,Answer indication,canvas.Screen,2_27_4,,,,,,skipped,,267279.7000000477,,,267278.7999999523,267279.7999999523,2024-07-30T16:38:10.873Z,267296.4,o0Bxo-wFMk,incremental,anketa,6645cf40bc81b65c5faccf1d,participant,hcpib7dulz8n0n3b,,,,,Što mama hvali kćer koja je u školi dobila?,Mama hvali kćer koja je u školi dobila peticu.,cnp,,,11,,,
,inter-stimulus,canvas.Screen,2_27_5,,,,,,response,1013.899999952293,267279.90000009537,267280.356,267296.4,268310.2999999523,268312.40000009537,2024-07-30T16:38:11.905Z,268329.9,o0Bxo-wFMk,incremental,anketa,6645cf40bc81b65c5faccf1d,participant,hcpib7dulz8n0n3b,,,mousedown,,Što mama hvali kćer koja je u školi dobila?,Mama hvali kćer koja je u školi dobila peticu.,cnp,,,11,,,
,Sequence,flow.Sequence,2_27,,,,,,completion,8780.19999995231,259497.70000004768,259513.698,259530.1,268310.2999999523,268312.7999999523,2024-07-30T16:38:11.906Z,268329.9,o0Bxo-wFMk,incremental,anketa,6645cf40bc81b65c5faccf1d,participant,hcpib7dulz8n0n3b,,,,,Što mama hvali kćer koja je u školi dobila?,Mama hvali kćer koja je u školi dobila peticu.,cnp,,,11,,,
,context,canvas.Screen,2_28_0_0,,,,,,response,3159.5999999999767,268313.2999999523,268313.632,268329.9,271489.5,271490.2999999523,2024-07-30T16:38:15.083Z,271496.4,o0Bxo-wFMk,incremental,anketa,6645cf40bc81b65c5faccf1d,participant,hcpib7dulz8n0n3b,,,click,,Što si saznao tužnu vijest da je Petar izgubio u podzemnoj??,Saznao si tužnu vijest da je Petar izgubio putovnicu u podzemnoj..,cnp,38,34,9,,,
,Timer frame,html.Frame,2_28_0,,,,,,,3160.500000095344,268313,268313.632,268329.9,271490.40000009537,271490.40000009537,2024-07-30T16:38:15.084Z,271496.4,o0Bxo-wFMk,incremental,anketa,6645cf40bc81b65c5faccf1d,participant,hcpib7dulz8n0n3b,,,,,Što si saznao tužnu vijest da je Petar izgubio u podzemnoj??,Saznao si tužnu vijest da je Petar izgubio putovnicu u podzemnoj..,cnp,38,34,9,,,
,stimulus,canvas.Screen,2_28_1_0,,,,,,response,1464.899999952293,271490.60000014305,271480.34,271496.4,272961.2999999523,272962.2000000477,2024-07-30T16:38:16.555Z,272979.7,o0Bxo-wFMk,incremental,anketa,6645cf40bc81b65c5faccf1d,participant,hcpib7dulz8n0n3b,,1,click @1,,Što si saznao tužnu vijest da je Petar izgubio u podzemnoj??,Saznao si tužnu vijest da je Petar izgubio putovnicu u podzemnoj..,cnp,38,34,9,,,
,Timer frame,html.Frame,2_28_1,,,,,,,1465.899999952293,271490.60000014305,271480.34,271496.4,272962.2999999523,272962.2999999523,2024-07-30T16:38:16.555Z,272979.7,o0Bxo-wFMk,incremental,anketa,6645cf40bc81b65c5faccf1d,participant,hcpib7dulz8n0n3b,,,,,Što si saznao tužnu vijest da je Petar izgubio u podzemnoj??,Saznao si tužnu vijest da je Petar izgubio putovnicu u podzemnoj..,cnp,38,34,9,,,
,Spremanje,canvas.Screen,2_28_2,,,,,,skipped,,272962.40000009537,,,272962.2999999523,272962.5,2024-07-30T16:38:16.556Z,272979.7,o0Bxo-wFMk,incremental,anketa,6645cf40bc81b65c5faccf1d,participant,hcpib7dulz8n0n3b,,,,,Što si saznao tužnu vijest da je Petar izgubio u podzemnoj??,Saznao si tužnu vijest da je Petar izgubio putovnicu u podzemnoj..,cnp,38,34,9,,,
,Question form,html.Form,2_28_3,,,,,,skipped,,272962.60000014305,,,272962.2999999523,272962.7000000477,2024-07-30T16:38:16.556Z,272979.7,o0Bxo-wFMk,incremental,anketa,6645cf40bc81b65c5faccf1d,participant,hcpib7dulz8n0n3b,,,,,Što si saznao tužnu vijest da je Petar izgubio u podzemnoj??,Saznao si tužnu vijest da je Petar izgubio putovnicu u podzemnoj..,cnp,38,34,9,,,
,Answer indication,canvas.Screen,2_28_4,,,,,,skipped,,272964.2000000477,,,272962.2999999523,272964.2999999523,2024-07-30T16:38:16.557Z,272979.7,o0Bxo-wFMk,incremental,anketa,6645cf40bc81b65c5faccf1d,participant,hcpib7dulz8n0n3b,,,,,Što si saznao tužnu vijest da je Petar izgubio u podzemnoj??,Saznao si tužnu vijest da je Petar izgubio putovnicu u podzemnoj..,cnp,38,34,9,,,
,inter-stimulus,canvas.Screen,2_28_5,,,,,,response,1058.000000047672,272964.40000009537,272963.56,272979.7,274037.7000000477,274039.7999999523,2024-07-30T16:38:17.633Z,274063.5,o0Bxo-wFMk,incremental,anketa,6645cf40bc81b65c5faccf1d,participant,hcpib7dulz8n0n3b,,,mousedown,,Što si saznao tužnu vijest da je Petar izgubio u podzemnoj??,Saznao si tužnu vijest da je Petar izgubio putovnicu u podzemnoj..,cnp,38,34,9,,,
,Sequence,flow.Sequence,2_28,,,,,,completion,5707.80000004766,268313,268313.632,268329.9,274037.7000000477,274040.2000000477,2024-07-30T16:38:17.633Z,274063.5,o0Bxo-wFMk,incremental,anketa,6645cf40bc81b65c5faccf1d,participant,hcpib7dulz8n0n3b,,,,,Što si saznao tužnu vijest da je Petar izgubio u podzemnoj??,Saznao si tužnu vijest da je Petar izgubio putovnicu u podzemnoj..,cnp,38,34,9,,,
,context,canvas.Screen,2_29_0_0,,,,,,response,744.1000001430511,274040.7000000477,274046.796,274063.5,274807.60000014305,274808.40000009537,2024-07-30T16:38:18.401Z,274813,o0Bxo-wFMk,incremental,anketa,6645cf40bc81b65c5faccf1d,participant,hcpib7dulz8n0n3b,,,click,,Vidimo plažu daleko od koje smo bili.,Vidimo plažu od koje smo bili daleko.,ai,,,24,,,
,Timer frame,html.Frame,2_29_0,,,,,,,745.1000001430511,274040.2999999523,274046.796,274063.5,274808.60000014305,274808.60000014305,2024-07-30T16:38:18.402Z,274813,o0Bxo-wFMk,incremental,anketa,6645cf40bc81b65c5faccf1d,participant,hcpib7dulz8n0n3b,,,,,Vidimo plažu daleko od koje smo bili.,Vidimo plažu od koje smo bili daleko.,ai,,,24,,,
,stimulus,canvas.Screen,2_29_1_0,,,,,,response,2865.600000143051,274808.7999999523,274796.944,274813,277678.60000014305,277679.5,2024-07-30T16:38:21.273Z,277696.3,o0Bxo-wFMk,incremental,anketa,6645cf40bc81b65c5faccf1d,participant,hcpib7dulz8n0n3b,,1,click @1,,Vidimo plažu daleko od koje smo bili.,Vidimo plažu od koje smo bili daleko.,ai,,,24,,,
,Timer frame,html.Frame,2_29_1,,,,,,,2866.9000000953674,274808.60000014305,274796.944,274813,277679.90000009537,277680,2024-07-30T16:38:21.273Z,277696.3,o0Bxo-wFMk,incremental,anketa,6645cf40bc81b65c5faccf1d,participant,hcpib7dulz8n0n3b,,,,,Vidimo plažu daleko od koje smo bili.,Vidimo plažu od koje smo bili daleko.,ai,,,24,,,
,Spremanje,canvas.Screen,2_29_2,,,,,,skipped,,277680.2000000477,,,277679.90000009537,277680.2000000477,2024-07-30T16:38:21.273Z,277696.3,o0Bxo-wFMk,incremental,anketa,6645cf40bc81b65c5faccf1d,participant,hcpib7dulz8n0n3b,,,,,Vidimo plažu daleko od koje smo bili.,Vidimo plažu od koje smo bili daleko.,ai,,,24,,,
