meta,sender,sender_type,sender_id,age,education,croatian-knowledge,occupation,,ended_on,duration,time_run,time_render,time_show,time_end,time_commit,timestamp,time_switch,openLabId,type,task,project,status,code,confirmationCode,response,response_action,answer_true,stimulus,context,island_type,transfer_s,transfer_c,id,right_answer,question,change_date
"{""labjs_version"":""20.2.4"",""labjs_build"":{""flavor"":""production"",""commit"":""f5b4a49f956347addd546a832a3327688c2c0fef""},""location"":""https://open-lab.online/test/anketa/66a911ece3bab725623a4116"",""userAgent"":""Mozilla/5.0 (Windows NT 10.0; Win64; x64; rv:128.0) Gecko/20100101 Firefox/128.0"",""platform"":""Win32"",""language"":""en-US"",""locale"":""en-US"",""timeZone"":""Europe/Warsaw"",""timezoneOffset"":-120,""screen_width"":1920,""screen_height"":1080,""scroll_width"":1920,""scroll_height"":906,""window_innerWidth"":1920,""window_innerHeight"":954,""devicePixelRatio"":1}",Demography form,html.Form,0,27,bachelor,mother-tongue,Komunikologija,,form submission,16216.2,920,920.12,936.8,17153,17153,2024-07-30T16:17:01.611Z,17169.66,SWGPFYzQBA,incremental,anketa,6645cf40bc81b65c5faccf1d,participant,hcpib7dulz8merow,577485,,,,,,,,,,,,
,context,canvas.Screen,1_0,,,,,,response,4354.34,17153,17153,17169.66,21524,21538,2024-07-30T16:17:05.996Z,21552.86,SWGPFYzQBA,incremental,anketa,6645cf40bc81b65c5faccf1d,participant,hcpib7dulz8merow,,,click,,,,,,,,,,
,stimulus,canvas.Screen,1_1,,,,,,response,12596.14,21539,21536.2,21552.86,34149,34158,2024-07-30T16:17:18.615Z,34169.18,SWGPFYzQBA,incremental,anketa,6645cf40bc81b65c5faccf1d,participant,hcpib7dulz8merow,,7,click @7,,,,,,,,,,
,inter-stimulus,canvas.Screen,1_2,,,,,,response,6167.82,34158,34152.5,34169.18,40337,40339,2024-07-30T16:17:24.797Z,40369,SWGPFYzQBA,incremental,anketa,6645cf40bc81b65c5faccf1d,participant,hcpib7dulz8merow,,,mousedown,,,,,,,,,,
,context,canvas.Screen,1_3,,,,,,response,2452,40339,40352.32,40369,42821,42835,2024-07-30T16:17:27.293Z,42852.24,SWGPFYzQBA,incremental,anketa,6645cf40bc81b65c5faccf1d,participant,hcpib7dulz8merow,,,click,,,,,,,,,,
,stimulus,canvas.Screen,1_4,,,,,,response,5625.760000000002,42835,42835.58,42852.24,48478,48485,2024-07-30T16:17:32.942Z,48502.08,SWGPFYzQBA,incremental,anketa,6645cf40bc81b65c5faccf1d,participant,hcpib7dulz8merow,,1,click @1,,,,,,,,,,
,inter-stimulus,canvas.Screen,1_5,,,,,,response,1443.9199999999983,48485,48485.42,48502.08,49946,49949,2024-07-30T16:17:34.406Z,49968.7,SWGPFYzQBA,incremental,anketa,6645cf40bc81b65c5faccf1d,participant,hcpib7dulz8merow,,,mousedown,,,,,,,,,,
,context,canvas.Screen,1_6,,,,,,response,2477.300000000003,49949,49952.04,49968.7,52446,52453,2024-07-30T16:17:36.910Z,52468.64,SWGPFYzQBA,incremental,anketa,6645cf40bc81b65c5faccf1d,participant,hcpib7dulz8merow,,,click,,,,,,,,,,
,stimulus,canvas.Screen,1_7_0,,,,,,response,2665.3600000000006,52454,52451.96,52468.64,55134,55143,2024-07-30T16:17:39.599Z,55151.9,SWGPFYzQBA,incremental,anketa,6645cf40bc81b65c5faccf1d,participant,hcpib7dulz8merow,,7,click @7,,,,,,,,,,
,Timer frame,html.Frame,1_7,,,,,,,2674.3600000000006,52454,52451.96,52468.64,55143,55143,2024-07-30T16:17:39.600Z,55151.9,SWGPFYzQBA,incremental,anketa,6645cf40bc81b65c5faccf1d,participant,hcpib7dulz8merow,,,,,,,,,,,,,
,Screen,canvas.Screen,1_8,,,,,,response,2872.0999999999985,55143,55135.22,55151.9,58024,58034,2024-07-30T16:17:42.491Z,58051.8,SWGPFYzQBA,incremental,anketa,6645cf40bc81b65c5faccf1d,participant,hcpib7dulz8merow,,,mousedown,,,,,,,,,,
,Question form,html.Form,1_9,,,,,,form submission,9410.199999999997,58035,58035.14,58051.8,67462,67462,2024-07-30T16:17:51.919Z,67484.86,SWGPFYzQBA,incremental,anketa,6645cf40bc81b65c5faccf1d,participant,hcpib7dulz8merow,,,,Zrele,,,,,,,,,
,Screen,canvas.Screen,1_10,,,,,,response,2180.1399999999994,67465,67468.2,67484.86,69665,69679,2024-07-30T16:17:54.136Z,69701.46,SWGPFYzQBA,incremental,anketa,6645cf40bc81b65c5faccf1d,participant,hcpib7dulz8merow,,,mousedown,,,,,,,,,,
,inter-stimulus,canvas.Screen,1_11,,,,,,response,2401.5399999999936,69679,69684.8,69701.46,72103,72109,2024-07-30T16:17:56.565Z,72134.74,SWGPFYzQBA,incremental,anketa,6645cf40bc81b65c5faccf1d,participant,hcpib7dulz8merow,,,mousedown,,,,,,,,,,
,First stimuli,flow.Sequence,1,,,,,,completion,54933.34,17153,17153,17169.66,72103,72109,2024-07-30T16:17:56.565Z,72134.74,SWGPFYzQBA,incremental,anketa,6645cf40bc81b65c5faccf1d,participant,hcpib7dulz8merow,,,,,,,,,,,,,
,context,canvas.Screen,2_0_0_0,,,,,,response,2968.2599999999948,72110,72118.06,72134.74,75103,75116,2024-07-30T16:17:59.572Z,75134.64,SWGPFYzQBA,incremental,anketa,6645cf40bc81b65c5faccf1d,participant,hcpib7dulz8merow,,,click,,Večeras je Anna nalakirala nokte.,Anna je večeras nalakirala nokte.,gf,,,49,,,
,Timer frame,html.Frame,2_0_0,,,,,,,2981.2599999999948,72109,72118.06,72134.74,75116,75116,2024-07-30T16:17:59.574Z,75134.64,SWGPFYzQBA,incremental,anketa,6645cf40bc81b65c5faccf1d,participant,hcpib7dulz8merow,,,,,Večeras je Anna nalakirala nokte.,Anna je večeras nalakirala nokte.,gf,,,49,,,
,stimulus,canvas.Screen,2_0_1_0,,,,,,response,2374.3600000000006,75117,75117.98,75134.64,77509,77518,2024-07-30T16:18:01.975Z,77534.58,SWGPFYzQBA,incremental,anketa,6645cf40bc81b65c5faccf1d,participant,hcpib7dulz8merow,,7,click @7,,Večeras je Anna nalakirala nokte.,Anna je večeras nalakirala nokte.,gf,,,49,,,
,Timer frame,html.Frame,2_0_1,,,,,,,2383.3600000000006,75116,75117.98,75134.64,77518,77518,2024-07-30T16:18:01.975Z,77534.58,SWGPFYzQBA,incremental,anketa,6645cf40bc81b65c5faccf1d,participant,hcpib7dulz8merow,,,,,Večeras je Anna nalakirala nokte.,Anna je večeras nalakirala nokte.,gf,,,49,,,
,Spremanje,canvas.Screen,2_0_2,,,,,,skipped,,77518,,,77518,77518,2024-07-30T16:18:01.975Z,77534.58,SWGPFYzQBA,incremental,anketa,6645cf40bc81b65c5faccf1d,participant,hcpib7dulz8merow,,,,,Večeras je Anna nalakirala nokte.,Anna je večeras nalakirala nokte.,gf,,,49,,,
,Question form,html.Form,2_0_3,,,,,,skipped,,77518,,,77518,77518,2024-07-30T16:18:01.975Z,77534.58,SWGPFYzQBA,incremental,anketa,6645cf40bc81b65c5faccf1d,participant,hcpib7dulz8merow,,,,,Večeras je Anna nalakirala nokte.,Anna je večeras nalakirala nokte.,gf,,,49,,,
,Answer indication,canvas.Screen,2_0_4,,,,,,skipped,,77519,,,77518,77519,2024-07-30T16:18:01.977Z,77534.58,SWGPFYzQBA,incremental,anketa,6645cf40bc81b65c5faccf1d,participant,hcpib7dulz8merow,,,,,Večeras je Anna nalakirala nokte.,Anna je večeras nalakirala nokte.,gf,,,49,,,
,inter-stimulus,canvas.Screen,2_0_5,,,,,,response,1630.4199999999983,77519,77517.92,77534.58,79165,79181,2024-07-30T16:18:03.637Z,79201.2,SWGPFYzQBA,incremental,anketa,6645cf40bc81b65c5faccf1d,participant,hcpib7dulz8merow,,,mousedown,,Večeras je Anna nalakirala nokte.,Anna je večeras nalakirala nokte.,gf,,,49,,,
,Sequence,flow.Sequence,2_0,,,,,,completion,7030.259999999995,72109,72118.06,72134.74,79165,79181,2024-07-30T16:18:03.637Z,79201.2,SWGPFYzQBA,incremental,anketa,6645cf40bc81b65c5faccf1d,participant,hcpib7dulz8merow,,,,,Večeras je Anna nalakirala nokte.,Anna je večeras nalakirala nokte.,gf,,,49,,,
,context,canvas.Screen,2_1_0_0,,,,,,response,2744.800000000003,79181,79184.52,79201.2,81946,81948,2024-07-30T16:18:06.405Z,81967.78,SWGPFYzQBA,incremental,anketa,6645cf40bc81b65c5faccf1d,participant,hcpib7dulz8merow,,,click,,Kakve izgrađene u viktorijansko doba te zgrade su izgrađene??,Te su zgrade izgrađene u viktorijansko doba.,nf,36,,43,,,
,Timer frame,html.Frame,2_1_0,,,,,,,2746.800000000003,79181,79184.52,79201.2,81948,81948,2024-07-30T16:18:06.405Z,81967.78,SWGPFYzQBA,incremental,anketa,6645cf40bc81b65c5faccf1d,participant,hcpib7dulz8merow,,,,,Kakve izgrađene u viktorijansko doba te zgrade su izgrađene??,Te su zgrade izgrađene u viktorijansko doba.,nf,36,,43,,,
,stimulus,canvas.Screen,2_1_1_0,,,,,,response,3978.220000000001,81949,81951.12,81967.78,85946,85952,2024-07-30T16:18:10.409Z,85967.68,SWGPFYzQBA,incremental,anketa,6645cf40bc81b65c5faccf1d,participant,hcpib7dulz8merow,,1,click @1,,Kakve izgrađene u viktorijansko doba te zgrade su izgrađene??,Te su zgrade izgrađene u viktorijansko doba.,nf,36,,43,,,
,Timer frame,html.Frame,2_1_1,,,,,,,3984.220000000001,81948,81951.12,81967.78,85952,85952,2024-07-30T16:18:10.409Z,85967.68,SWGPFYzQBA,incremental,anketa,6645cf40bc81b65c5faccf1d,participant,hcpib7dulz8merow,,,,,Kakve izgrađene u viktorijansko doba te zgrade su izgrađene??,Te su zgrade izgrađene u viktorijansko doba.,nf,36,,43,,,
,Spremanje,canvas.Screen,2_1_2,,,,,,skipped,,85952,,,85952,85952,2024-07-30T16:18:10.409Z,85967.68,SWGPFYzQBA,incremental,anketa,6645cf40bc81b65c5faccf1d,participant,hcpib7dulz8merow,,,,,Kakve izgrađene u viktorijansko doba te zgrade su izgrađene??,Te su zgrade izgrađene u viktorijansko doba.,nf,36,,43,,,
,Question form,html.Form,2_1_3,,,,,,skipped,,85952,,,85952,85952,2024-07-30T16:18:10.409Z,85967.68,SWGPFYzQBA,incremental,anketa,6645cf40bc81b65c5faccf1d,participant,hcpib7dulz8merow,,,,,Kakve izgrađene u viktorijansko doba te zgrade su izgrađene??,Te su zgrade izgrađene u viktorijansko doba.,nf,36,,43,,,
,Answer indication,canvas.Screen,2_1_4,,,,,,skipped,,85954,,,85952,85954,2024-07-30T16:18:10.410Z,85967.68,SWGPFYzQBA,incremental,anketa,6645cf40bc81b65c5faccf1d,participant,hcpib7dulz8merow,,,,,Kakve izgrađene u viktorijansko doba te zgrade su izgrađene??,Te su zgrade izgrađene u viktorijansko doba.,nf,36,,43,,,
,inter-stimulus,canvas.Screen,2_1_5,,,,,,response,1775.320000000007,85954,85951,85967.68,87743,87756,2024-07-30T16:18:12.213Z,87784.28,SWGPFYzQBA,incremental,anketa,6645cf40bc81b65c5faccf1d,participant,hcpib7dulz8merow,,,mousedown,,Kakve izgrađene u viktorijansko doba te zgrade su izgrađene??,Te su zgrade izgrađene u viktorijansko doba.,nf,36,,43,,,
,Sequence,flow.Sequence,2_1,,,,,,completion,8541.800000000003,79181,79184.52,79201.2,87743,87756,2024-07-30T16:18:12.214Z,87784.28,SWGPFYzQBA,incremental,anketa,6645cf40bc81b65c5faccf1d,participant,hcpib7dulz8merow,,,,,Kakve izgrađene u viktorijansko doba te zgrade su izgrađene??,Te su zgrade izgrađene u viktorijansko doba.,nf,36,,43,,,
,context,canvas.Screen,2_2_0_0,,,,,,response,1989.7200000000012,87756,87767.62,87784.28,89774,89780,2024-07-30T16:18:14.237Z,89800.9,SWGPFYzQBA,incremental,anketa,6645cf40bc81b65c5faccf1d,participant,hcpib7dulz8merow,,,click,,Komu tužno je gledati da ljudi i dalje daju novac??,Tužno je gledati da ljudi i dalje daju novac šarlatanima..,si,38,33,19,,,
,Timer frame,html.Frame,2_2_0,,,,,,,1995.7200000000012,87756,87767.62,87784.28,89780,89780,2024-07-30T16:18:14.237Z,89800.9,SWGPFYzQBA,incremental,anketa,6645cf40bc81b65c5faccf1d,participant,hcpib7dulz8merow,,,,,Komu tužno je gledati da ljudi i dalje daju novac??,Tužno je gledati da ljudi i dalje daju novac šarlatanima..,si,38,33,19,,,
,stimulus,canvas.Screen,2_2_1_0,,,,,,response,4723.100000000006,89781,89784.22,89800.9,94524,94530,2024-07-30T16:18:18.987Z,94550.76,SWGPFYzQBA,incremental,anketa,6645cf40bc81b65c5faccf1d,participant,hcpib7dulz8merow,,4,click @4,,Komu tužno je gledati da ljudi i dalje daju novac??,Tužno je gledati da ljudi i dalje daju novac šarlatanima..,si,38,33,19,,,
,Timer frame,html.Frame,2_2_1,,,,,,,4729.100000000006,89780,89784.22,89800.9,94530,94531,2024-07-30T16:18:18.987Z,94550.76,SWGPFYzQBA,incremental,anketa,6645cf40bc81b65c5faccf1d,participant,hcpib7dulz8merow,,,,,Komu tužno je gledati da ljudi i dalje daju novac??,Tužno je gledati da ljudi i dalje daju novac šarlatanima..,si,38,33,19,,,
,Spremanje,canvas.Screen,2_2_2,,,,,,skipped,,94531,,,94530,94531,2024-07-30T16:18:18.987Z,94550.76,SWGPFYzQBA,incremental,anketa,6645cf40bc81b65c5faccf1d,participant,hcpib7dulz8merow,,,,,Komu tužno je gledati da ljudi i dalje daju novac??,Tužno je gledati da ljudi i dalje daju novac šarlatanima..,si,38,33,19,,,
,Question form,html.Form,2_2_3,,,,,,skipped,,94531,,,94530,94531,2024-07-30T16:18:18.987Z,94550.76,SWGPFYzQBA,incremental,anketa,6645cf40bc81b65c5faccf1d,participant,hcpib7dulz8merow,,,,,Komu tužno je gledati da ljudi i dalje daju novac??,Tužno je gledati da ljudi i dalje daju novac šarlatanima..,si,38,33,19,,,
,Answer indication,canvas.Screen,2_2_4,,,,,,skipped,,94532,,,94530,94532,2024-07-30T16:18:18.988Z,94550.76,SWGPFYzQBA,incremental,anketa,6645cf40bc81b65c5faccf1d,participant,hcpib7dulz8merow,,,,,Komu tužno je gledati da ljudi i dalje daju novac??,Tužno je gledati da ljudi i dalje daju novac šarlatanima..,si,38,33,19,,,
,inter-stimulus,canvas.Screen,2_2_5,,,,,,response,864.2400000000052,94532,94534.08,94550.76,95415,95429,2024-07-30T16:18:19.886Z,95450.72,SWGPFYzQBA,incremental,anketa,6645cf40bc81b65c5faccf1d,participant,hcpib7dulz8merow,,,mousedown,,Komu tužno je gledati da ljudi i dalje daju novac??,Tužno je gledati da ljudi i dalje daju novac šarlatanima..,si,38,33,19,,,
,Sequence,flow.Sequence,2_2,,,,,,completion,7630.720000000001,87756,87767.62,87784.28,95415,95430,2024-07-30T16:18:19.887Z,95450.72,SWGPFYzQBA,incremental,anketa,6645cf40bc81b65c5faccf1d,participant,hcpib7dulz8merow,,,,,Komu tužno je gledati da ljudi i dalje daju novac??,Tužno je gledati da ljudi i dalje daju novac šarlatanima..,si,38,33,19,,,
,context,canvas.Screen,2_3_0_0,,,,,,response,2167.279999999999,95431,95434.06,95450.72,97618,97624,2024-07-30T16:18:22.081Z,97634,SWGPFYzQBA,incremental,anketa,6645cf40bc81b65c5faccf1d,participant,hcpib7dulz8merow,,,click,,Kakav sam vidio barku u oceanu?,Vidio sam bijelu barku u oceanu.,nf,,,41,,,2305
,Timer frame,html.Frame,2_3_0,,,,,,,2173.279999999999,95430,95434.06,95450.72,97624,97624,2024-07-30T16:18:22.081Z,97634,SWGPFYzQBA,incremental,anketa,6645cf40bc81b65c5faccf1d,participant,hcpib7dulz8merow,,,,,Kakav sam vidio barku u oceanu?,Vidio sam bijelu barku u oceanu.,nf,,,41,,,2305
,stimulus,canvas.Screen,2_3_1_0,,,,,,response,7844,97625,97617.34,97634,105478,105480,2024-07-30T16:18:29.937Z,105500.44,SWGPFYzQBA,incremental,anketa,6645cf40bc81b65c5faccf1d,participant,hcpib7dulz8merow,,1,click @1,,Kakav sam vidio barku u oceanu?,Vidio sam bijelu barku u oceanu.,nf,,,41,,,2305
,Timer frame,html.Frame,2_3_1,,,,,,,7846,97624,97617.34,97634,105480,105480,2024-07-30T16:18:29.938Z,105500.44,SWGPFYzQBA,incremental,anketa,6645cf40bc81b65c5faccf1d,participant,hcpib7dulz8merow,,,,,Kakav sam vidio barku u oceanu?,Vidio sam bijelu barku u oceanu.,nf,,,41,,,2305
,Spremanje,canvas.Screen,2_3_2,,,,,,skipped,,105481,,,105480,105481,2024-07-30T16:18:29.938Z,105500.44,SWGPFYzQBA,incremental,anketa,6645cf40bc81b65c5faccf1d,participant,hcpib7dulz8merow,,,,,Kakav sam vidio barku u oceanu?,Vidio sam bijelu barku u oceanu.,nf,,,41,,,2305
,Question form,html.Form,2_3_3,,,,,,skipped,,105481,,,105480,105481,2024-07-30T16:18:29.938Z,105500.44,SWGPFYzQBA,incremental,anketa,6645cf40bc81b65c5faccf1d,participant,hcpib7dulz8merow,,,,,Kakav sam vidio barku u oceanu?,Vidio sam bijelu barku u oceanu.,nf,,,41,,,2305
,Answer indication,canvas.Screen,2_3_4,,,,,,skipped,,105483,,,105480,105483,2024-07-30T16:18:29.941Z,105500.44,SWGPFYzQBA,incremental,anketa,6645cf40bc81b65c5faccf1d,participant,hcpib7dulz8merow,,,,,Kakav sam vidio barku u oceanu?,Vidio sam bijelu barku u oceanu.,nf,,,41,,,2305
,inter-stimulus,canvas.Screen,2_3_5,,,,,,response,727.5599999999977,105483,105483.76,105500.44,106228,106240,2024-07-30T16:18:30.697Z,106267.08,SWGPFYzQBA,incremental,anketa,6645cf40bc81b65c5faccf1d,participant,hcpib7dulz8merow,,,mousedown,,Kakav sam vidio barku u oceanu?,Vidio sam bijelu barku u oceanu.,nf,,,41,,,2305
,Sequence,flow.Sequence,2_3,,,,,,completion,10777.279999999999,95430,95434.06,95450.72,106228,106241,2024-07-30T16:18:30.697Z,106267.08,SWGPFYzQBA,incremental,anketa,6645cf40bc81b65c5faccf1d,participant,hcpib7dulz8merow,,,,,Kakav sam vidio barku u oceanu?,Vidio sam bijelu barku u oceanu.,nf,,,41,,,2305
,context,canvas.Screen,2_4_0_0,,,,,,response,2178.9199999999983,106241,106250.42,106267.08,108446,108448,2024-07-30T16:18:32.905Z,108467.02,SWGPFYzQBA,incremental,anketa,6645cf40bc81b65c5faccf1d,participant,hcpib7dulz8merow,,,click,,Tko je ovo bio jasan slučaj da je zapravo pohlepna osoba??,Ovo je bio jasan slučaj da je on zapravo pohlepna osoba..,cnp,41,40,8,,,
,Timer frame,html.Frame,2_4_0,,,,,,,2180.9199999999983,106241,106250.42,106267.08,108448,108448,2024-07-30T16:18:32.905Z,108467.02,SWGPFYzQBA,incremental,anketa,6645cf40bc81b65c5faccf1d,participant,hcpib7dulz8merow,,,,,Tko je ovo bio jasan slučaj da je zapravo pohlepna osoba??,Ovo je bio jasan slučaj da je on zapravo pohlepna osoba..,cnp,41,40,8,,,
,stimulus,canvas.Screen,2_4_1_0,,,,,,response,1885.979999999996,108449,108450.34,108467.02,110353,110360,2024-07-30T16:18:34.817Z,110366.96,SWGPFYzQBA,incremental,anketa,6645cf40bc81b65c5faccf1d,participant,hcpib7dulz8merow,,1,click @1,,Tko je ovo bio jasan slučaj da je zapravo pohlepna osoba??,Ovo je bio jasan slučaj da je on zapravo pohlepna osoba..,cnp,41,40,8,,,
,Timer frame,html.Frame,2_4_1,,,,,,,1892.979999999996,108449,108450.34,108467.02,110360,110360,2024-07-30T16:18:34.818Z,110366.96,SWGPFYzQBA,incremental,anketa,6645cf40bc81b65c5faccf1d,participant,hcpib7dulz8merow,,,,,Tko je ovo bio jasan slučaj da je zapravo pohlepna osoba??,Ovo je bio jasan slučaj da je on zapravo pohlepna osoba..,cnp,41,40,8,,,
,Spremanje,canvas.Screen,2_4_2,,,,,,skipped,,110360,,,110360,110360,2024-07-30T16:18:34.818Z,110366.96,SWGPFYzQBA,incremental,anketa,6645cf40bc81b65c5faccf1d,participant,hcpib7dulz8merow,,,,,Tko je ovo bio jasan slučaj da je zapravo pohlepna osoba??,Ovo je bio jasan slučaj da je on zapravo pohlepna osoba..,cnp,41,40,8,,,
,Question form,html.Form,2_4_3,,,,,,skipped,,110360,,,110360,110360,2024-07-30T16:18:34.818Z,110366.96,SWGPFYzQBA,incremental,anketa,6645cf40bc81b65c5faccf1d,participant,hcpib7dulz8merow,,,,,Tko je ovo bio jasan slučaj da je zapravo pohlepna osoba??,Ovo je bio jasan slučaj da je on zapravo pohlepna osoba..,cnp,41,40,8,,,
,Answer indication,canvas.Screen,2_4_4,,,,,,skipped,,110361,,,110360,110361,2024-07-30T16:18:34.818Z,110366.96,SWGPFYzQBA,incremental,anketa,6645cf40bc81b65c5faccf1d,participant,hcpib7dulz8merow,,,,,Tko je ovo bio jasan slučaj da je zapravo pohlepna osoba??,Ovo je bio jasan slučaj da je on zapravo pohlepna osoba..,cnp,41,40,8,,,
,inter-stimulus,canvas.Screen,2_4_5,,,,,,response,470.0399999999936,110361,110350.3,110366.96,110837,110849,2024-07-30T16:18:35.305Z,110866.94,SWGPFYzQBA,incremental,anketa,6645cf40bc81b65c5faccf1d,participant,hcpib7dulz8merow,,,mousedown,,Tko je ovo bio jasan slučaj da je zapravo pohlepna osoba??,Ovo je bio jasan slučaj da je on zapravo pohlepna osoba..,cnp,41,40,8,,,
,Sequence,flow.Sequence,2_4,,,,,,completion,4569.919999999998,106241,106250.42,106267.08,110837,110849,2024-07-30T16:18:35.306Z,110866.94,SWGPFYzQBA,incremental,anketa,6645cf40bc81b65c5faccf1d,participant,hcpib7dulz8merow,,,,,Tko je ovo bio jasan slučaj da je zapravo pohlepna osoba??,Ovo je bio jasan slučaj da je on zapravo pohlepna osoba..,cnp,41,40,8,,,
,context,canvas.Screen,2_5_0_0,,,,,,response,3064.0599999999977,110849,110850.26,110866.94,113931,113936,2024-07-30T16:18:38.393Z,113950.2,SWGPFYzQBA,incremental,anketa,6645cf40bc81b65c5faccf1d,participant,hcpib7dulz8merow,,,click,,Što si saznao tužnu vijest da je Petar izgubio u podzemnoj??,Saznao si tužnu vijest da je Petar izgubio putovnicu u podzemnoj..,cnp,38,34,9,,,
,Timer frame,html.Frame,2_5_0,,,,,,,3069.0599999999977,110849,110850.26,110866.94,113936,113936,2024-07-30T16:18:38.393Z,113950.2,SWGPFYzQBA,incremental,anketa,6645cf40bc81b65c5faccf1d,participant,hcpib7dulz8merow,,,,,Što si saznao tužnu vijest da je Petar izgubio u podzemnoj??,Saznao si tužnu vijest da je Petar izgubio putovnicu u podzemnoj..,cnp,38,34,9,,,
,stimulus,canvas.Screen,2_5_1_0,,,,,,response,4292.800000000003,113937,113933.54,113950.2,118243,118256,2024-07-30T16:18:42.713Z,118266.72,SWGPFYzQBA,incremental,anketa,6645cf40bc81b65c5faccf1d,participant,hcpib7dulz8merow,,1,click @1,,Što si saznao tužnu vijest da je Petar izgubio u podzemnoj??,Saznao si tužnu vijest da je Petar izgubio putovnicu u podzemnoj..,cnp,38,34,9,,,
,Timer frame,html.Frame,2_5_1,,,,,,,4305.800000000003,113936,113933.54,113950.2,118256,118256,2024-07-30T16:18:42.713Z,118266.72,SWGPFYzQBA,incremental,anketa,6645cf40bc81b65c5faccf1d,participant,hcpib7dulz8merow,,,,,Što si saznao tužnu vijest da je Petar izgubio u podzemnoj??,Saznao si tužnu vijest da je Petar izgubio putovnicu u podzemnoj..,cnp,38,34,9,,,
,Spremanje,canvas.Screen,2_5_2,,,,,,skipped,,118256,,,118256,118256,2024-07-30T16:18:42.714Z,118266.72,SWGPFYzQBA,incremental,anketa,6645cf40bc81b65c5faccf1d,participant,hcpib7dulz8merow,,,,,Što si saznao tužnu vijest da je Petar izgubio u podzemnoj??,Saznao si tužnu vijest da je Petar izgubio putovnicu u podzemnoj..,cnp,38,34,9,,,
,Question form,html.Form,2_5_3,,,,,,skipped,,118256,,,118256,118256,2024-07-30T16:18:42.714Z,118266.72,SWGPFYzQBA,incremental,anketa,6645cf40bc81b65c5faccf1d,participant,hcpib7dulz8merow,,,,,Što si saznao tužnu vijest da je Petar izgubio u podzemnoj??,Saznao si tužnu vijest da je Petar izgubio putovnicu u podzemnoj..,cnp,38,34,9,,,
,Answer indication,canvas.Screen,2_5_4,,,,,,skipped,,118257,,,118256,118257,2024-07-30T16:18:42.715Z,118266.72,SWGPFYzQBA,incremental,anketa,6645cf40bc81b65c5faccf1d,participant,hcpib7dulz8merow,,,,,Što si saznao tužnu vijest da je Petar izgubio u podzemnoj??,Saznao si tužnu vijest da je Petar izgubio putovnicu u podzemnoj..,cnp,38,34,9,,,
,inter-stimulus,canvas.Screen,2_5_5,,,,,,response,414.27999999999884,118257,118250.06,118266.72,118681,118696,2024-07-30T16:18:43.153Z,118716.72,SWGPFYzQBA,incremental,anketa,6645cf40bc81b65c5faccf1d,participant,hcpib7dulz8merow,,,mousedown,,Što si saznao tužnu vijest da je Petar izgubio u podzemnoj??,Saznao si tužnu vijest da je Petar izgubio putovnicu u podzemnoj..,cnp,38,34,9,,,
,Sequence,flow.Sequence,2_5,,,,,,completion,7814.059999999998,110849,110850.26,110866.94,118681,118697,2024-07-30T16:18:43.153Z,118716.72,SWGPFYzQBA,incremental,anketa,6645cf40bc81b65c5faccf1d,participant,hcpib7dulz8merow,,,,,Što si saznao tužnu vijest da je Petar izgubio u podzemnoj??,Saznao si tužnu vijest da je Petar izgubio putovnicu u podzemnoj..,cnp,38,34,9,,,
,context,canvas.Screen,2_6_0_0,,,,,,response,3542.279999999999,118697,118700.04,118716.72,122259,122260,2024-07-30T16:18:46.717Z,122266.62,SWGPFYzQBA,incremental,anketa,6645cf40bc81b65c5faccf1d,participant,hcpib7dulz8merow,,,click,,Od čega je djed otišao u sanatorij odmarati?,Djed je otišao u sanatorij odmarati od gužve i buke..,ai,,26,30,,,
,Timer frame,html.Frame,2_6_0,,,,,,,3543.279999999999,118697,118700.04,118716.72,122260,122260,2024-07-30T16:18:46.718Z,122266.62,SWGPFYzQBA,incremental,anketa,6645cf40bc81b65c5faccf1d,participant,hcpib7dulz8merow,,,,,Od čega je djed otišao u sanatorij odmarati?,Djed je otišao u sanatorij odmarati od gužve i buke..,ai,,26,30,,,
,stimulus,canvas.Screen,2_6_1_0,,,,,,response,2382.3800000000047,122261,122249.96,122266.62,124649,124664,2024-07-30T16:18:49.121Z,124683.2,SWGPFYzQBA,incremental,anketa,6645cf40bc81b65c5faccf1d,participant,hcpib7dulz8merow,,7,click @7,,Od čega je djed otišao u sanatorij odmarati?,Djed je otišao u sanatorij odmarati od gužve i buke..,ai,,26,30,,,
,Timer frame,html.Frame,2_6_1,,,,,,,2397.3800000000047,122260,122249.96,122266.62,124664,124664,2024-07-30T16:18:49.121Z,124683.2,SWGPFYzQBA,incremental,anketa,6645cf40bc81b65c5faccf1d,participant,hcpib7dulz8merow,,,,,Od čega je djed otišao u sanatorij odmarati?,Djed je otišao u sanatorij odmarati od gužve i buke..,ai,,26,30,,,
,Spremanje,canvas.Screen,2_6_2,,,,,,skipped,,124664,,,124664,124664,2024-07-30T16:18:49.121Z,124683.2,SWGPFYzQBA,incremental,anketa,6645cf40bc81b65c5faccf1d,participant,hcpib7dulz8merow,,,,,Od čega je djed otišao u sanatorij odmarati?,Djed je otišao u sanatorij odmarati od gužve i buke..,ai,,26,30,,,
,Question form,html.Form,2_6_3,,,,,,skipped,,124664,,,124664,124664,2024-07-30T16:18:49.121Z,124683.2,SWGPFYzQBA,incremental,anketa,6645cf40bc81b65c5faccf1d,participant,hcpib7dulz8merow,,,,,Od čega je djed otišao u sanatorij odmarati?,Djed je otišao u sanatorij odmarati od gužve i buke..,ai,,26,30,,,
,Answer indication,canvas.Screen,2_6_4,,,,,,skipped,,124665,,,124664,124665,2024-07-30T16:18:49.122Z,124683.2,SWGPFYzQBA,incremental,anketa,6645cf40bc81b65c5faccf1d,participant,hcpib7dulz8merow,,,,,Od čega je djed otišao u sanatorij odmarati?,Djed je otišao u sanatorij odmarati od gužve i buke..,ai,,26,30,,,
,inter-stimulus,canvas.Screen,2_6_5,,,,,,response,1481.800000000003,124665,124666.54,124683.2,126165,126170,2024-07-30T16:18:50.627Z,126199.86,SWGPFYzQBA,incremental,anketa,6645cf40bc81b65c5faccf1d,participant,hcpib7dulz8merow,,,mousedown,,Od čega je djed otišao u sanatorij odmarati?,Djed je otišao u sanatorij odmarati od gužve i buke..,ai,,26,30,,,
,Sequence,flow.Sequence,2_6,,,,,,completion,7448.279999999999,118697,118700.04,118716.72,126165,126170,2024-07-30T16:18:50.627Z,126199.86,SWGPFYzQBA,incremental,anketa,6645cf40bc81b65c5faccf1d,participant,hcpib7dulz8merow,,,,,Od čega je djed otišao u sanatorij odmarati?,Djed je otišao u sanatorij odmarati od gužve i buke..,ai,,26,30,,,
,context,canvas.Screen,2_7_0_0,,,,,,response,2574.1399999999994,126170,126183.18,126199.86,128774,128782,2024-07-30T16:18:53.239Z,128799.76,SWGPFYzQBA,incremental,anketa,6645cf40bc81b65c5faccf1d,participant,hcpib7dulz8merow,,,click,,Što bismo voljeli da Drago napravi bez prigovora??,Voljeli bismo da Drago opere auto bez prigovora..,si,26,22,16,,,
,Timer frame,html.Frame,2_7_0,,,,,,,2582.1399999999994,126170,126183.18,126199.86,128782,128782,2024-07-30T16:18:53.240Z,128799.76,SWGPFYzQBA,incremental,anketa,6645cf40bc81b65c5faccf1d,participant,hcpib7dulz8merow,,,,,Što bismo voljeli da Drago napravi bez prigovora??,Voljeli bismo da Drago opere auto bez prigovora..,si,26,22,16,,,
,stimulus,canvas.Screen,2_7_1_0,,,,,,response,1724.2400000000052,128782,128783.1,128799.76,130524,130532,2024-07-30T16:18:54.990Z,130549.72,SWGPFYzQBA,incremental,anketa,6645cf40bc81b65c5faccf1d,participant,hcpib7dulz8merow,,7,click @7,,Što bismo voljeli da Drago napravi bez prigovora??,Voljeli bismo da Drago opere auto bez prigovora..,si,26,22,16,,,
,Timer frame,html.Frame,2_7_1,,,,,,,1733.2400000000052,128782,128783.1,128799.76,130533,130533,2024-07-30T16:18:54.991Z,130549.72,SWGPFYzQBA,incremental,anketa,6645cf40bc81b65c5faccf1d,participant,hcpib7dulz8merow,,,,,Što bismo voljeli da Drago napravi bez prigovora??,Voljeli bismo da Drago opere auto bez prigovora..,si,26,22,16,,,
,Spremanje,canvas.Screen,2_7_2,,,,,,skipped,,130533,,,130533,130533,2024-07-30T16:18:54.991Z,130549.72,SWGPFYzQBA,incremental,anketa,6645cf40bc81b65c5faccf1d,participant,hcpib7dulz8merow,,,,,Što bismo voljeli da Drago napravi bez prigovora??,Voljeli bismo da Drago opere auto bez prigovora..,si,26,22,16,,,
,Question form,html.Form,2_7_3,,,,,,skipped,,130533,,,130533,130533,2024-07-30T16:18:54.991Z,130549.72,SWGPFYzQBA,incremental,anketa,6645cf40bc81b65c5faccf1d,participant,hcpib7dulz8merow,,,,,Što bismo voljeli da Drago napravi bez prigovora??,Voljeli bismo da Drago opere auto bez prigovora..,si,26,22,16,,,
,Answer indication,canvas.Screen,2_7_4,,,,,,skipped,,130536,,,130533,130536,2024-07-30T16:18:54.993Z,130549.72,SWGPFYzQBA,incremental,anketa,6645cf40bc81b65c5faccf1d,participant,hcpib7dulz8merow,,,,,Što bismo voljeli da Drago napravi bez prigovora??,Voljeli bismo da Drago opere auto bez prigovora..,si,26,22,16,,,
,inter-stimulus,canvas.Screen,2_7_5,,,,,,response,724.2799999999988,130536,130533.04,130549.72,131274,131282,2024-07-30T16:18:55.739Z,131299.7,SWGPFYzQBA,incremental,anketa,6645cf40bc81b65c5faccf1d,participant,hcpib7dulz8merow,,,mousedown,,Što bismo voljeli da Drago napravi bez prigovora??,Voljeli bismo da Drago opere auto bez prigovora..,si,26,22,16,,,
,Sequence,flow.Sequence,2_7,,,,,,completion,5074.139999999999,126170,126183.18,126199.86,131274,131282,2024-07-30T16:18:55.740Z,131299.7,SWGPFYzQBA,incremental,anketa,6645cf40bc81b65c5faccf1d,participant,hcpib7dulz8merow,,,,,Što bismo voljeli da Drago napravi bez prigovora??,Voljeli bismo da Drago opere auto bez prigovora..,si,26,22,16,,,
,context,canvas.Screen,2_8_0_0,,,,,,response,1709.2999999999884,131283,131283.04,131299.7,133009,133014,2024-07-30T16:18:57.471Z,133032.96,SWGPFYzQBA,incremental,anketa,6645cf40bc81b65c5faccf1d,participant,hcpib7dulz8merow,,,click,,"To su oni siromasi, koje je htio nahraniti i moliti se bogu..",Hoće nahraniti siromahe i moliti se bogu.,csi,42,0,6,,,
,Timer frame,html.Frame,2_8_0,,,,,,,1714.2999999999884,131282,131283.04,131299.7,133014,133014,2024-07-30T16:18:57.471Z,133032.96,SWGPFYzQBA,incremental,anketa,6645cf40bc81b65c5faccf1d,participant,hcpib7dulz8merow,,,,,"To su oni siromasi, koje je htio nahraniti i moliti se bogu..",Hoće nahraniti siromahe i moliti se bogu.,csi,42,0,6,,,
,stimulus,canvas.Screen,2_8_1_0,,,,,,response,4210.040000000008,133015,133016.3,133032.96,137243,137244,2024-07-30T16:19:01.701Z,137266.18,SWGPFYzQBA,incremental,anketa,6645cf40bc81b65c5faccf1d,participant,hcpib7dulz8merow,,7,click @7,,"To su oni siromasi, koje je htio nahraniti i moliti se bogu..",Hoće nahraniti siromahe i moliti se bogu.,csi,42,0,6,,,
,Timer frame,html.Frame,2_8_1,,,,,,,4211.040000000008,133014,133016.3,133032.96,137244,137244,2024-07-30T16:19:01.701Z,137266.18,SWGPFYzQBA,incremental,anketa,6645cf40bc81b65c5faccf1d,participant,hcpib7dulz8merow,,,,,"To su oni siromasi, koje je htio nahraniti i moliti se bogu..",Hoće nahraniti siromahe i moliti se bogu.,csi,42,0,6,,,
,Spremanje,canvas.Screen,2_8_2,,,,,,skipped,,137244,,,137244,137244,2024-07-30T16:19:01.701Z,137266.18,SWGPFYzQBA,incremental,anketa,6645cf40bc81b65c5faccf1d,participant,hcpib7dulz8merow,,,,,"To su oni siromasi, koje je htio nahraniti i moliti se bogu..",Hoće nahraniti siromahe i moliti se bogu.,csi,42,0,6,,,
,Question form,html.Form,2_8_3,,,,,,skipped,,137244,,,137244,137244,2024-07-30T16:19:01.701Z,137266.18,SWGPFYzQBA,incremental,anketa,6645cf40bc81b65c5faccf1d,participant,hcpib7dulz8merow,,,,,"To su oni siromasi, koje je htio nahraniti i moliti se bogu..",Hoće nahraniti siromahe i moliti se bogu.,csi,42,0,6,,,
,Answer indication,canvas.Screen,2_8_4,,,,,,skipped,,137245,,,137244,137245,2024-07-30T16:19:01.703Z,137266.18,SWGPFYzQBA,incremental,anketa,6645cf40bc81b65c5faccf1d,participant,hcpib7dulz8merow,,,,,"To su oni siromasi, koje je htio nahraniti i moliti se bogu..",Hoće nahraniti siromahe i moliti se bogu.,csi,42,0,6,,,
,inter-stimulus,canvas.Screen,2_8_5,,,,,,response,1445.820000000007,137245,137249.52,137266.18,138712,138720,2024-07-30T16:19:03.177Z,138749.48,SWGPFYzQBA,incremental,anketa,6645cf40bc81b65c5faccf1d,participant,hcpib7dulz8merow,,,mousedown,,"To su oni siromasi, koje je htio nahraniti i moliti se bogu..",Hoće nahraniti siromahe i moliti se bogu.,csi,42,0,6,,,
,Sequence,flow.Sequence,2_8,,,,,,completion,7412.299999999988,131282,131283.04,131299.7,138712,138720,2024-07-30T16:19:03.177Z,138749.48,SWGPFYzQBA,incremental,anketa,6645cf40bc81b65c5faccf1d,participant,hcpib7dulz8merow,,,,,"To su oni siromasi, koje je htio nahraniti i moliti se bogu..",Hoće nahraniti siromahe i moliti se bogu.,csi,42,0,6,,,
,context,canvas.Screen,2_9_0_0,,,,,,response,3056.5199999999895,138720,138732.8,138749.48,141806,141810,2024-07-30T16:19:06.267Z,141816.04,SWGPFYzQBA,incremental,anketa,6645cf40bc81b65c5faccf1d,participant,hcpib7dulz8merow,,,click,,Tko strah me i zamisliti s kakvim će se ogorčenjem vratiti kući??,Strah me i zamisliti s kakvim će se ogorčenjem moj brat vratiti kući..,ai,24,20,29,,,
,Timer frame,html.Frame,2_9_0,,,,,,,3060.5199999999895,138720,138732.8,138749.48,141810,141810,2024-07-30T16:19:06.267Z,141816.04,SWGPFYzQBA,incremental,anketa,6645cf40bc81b65c5faccf1d,participant,hcpib7dulz8merow,,,,,Tko strah me i zamisliti s kakvim će se ogorčenjem vratiti kući??,Strah me i zamisliti s kakvim će se ogorčenjem moj brat vratiti kući..,ai,24,20,29,,,
,stimulus,canvas.Screen,2_9_1_0,,,,,,response,2426.959999999992,141810,141799.36,141816.04,144243,144258,2024-07-30T16:19:08.715Z,144265.98,SWGPFYzQBA,incremental,anketa,6645cf40bc81b65c5faccf1d,participant,hcpib7dulz8merow,,1,click @1,,Tko strah me i zamisliti s kakvim će se ogorčenjem vratiti kući??,Strah me i zamisliti s kakvim će se ogorčenjem moj brat vratiti kući..,ai,24,20,29,,,
,Timer frame,html.Frame,2_9_1,,,,,,,2441.959999999992,141810,141799.36,141816.04,144258,144258,2024-07-30T16:19:08.716Z,144265.98,SWGPFYzQBA,incremental,anketa,6645cf40bc81b65c5faccf1d,participant,hcpib7dulz8merow,,,,,Tko strah me i zamisliti s kakvim će se ogorčenjem vratiti kući??,Strah me i zamisliti s kakvim će se ogorčenjem moj brat vratiti kući..,ai,24,20,29,,,
,Spremanje,canvas.Screen,2_9_2,,,,,,skipped,,144258,,,144258,144258,2024-07-30T16:19:08.716Z,144265.98,SWGPFYzQBA,incremental,anketa,6645cf40bc81b65c5faccf1d,participant,hcpib7dulz8merow,,,,,Tko strah me i zamisliti s kakvim će se ogorčenjem vratiti kući??,Strah me i zamisliti s kakvim će se ogorčenjem moj brat vratiti kući..,ai,24,20,29,,,
,Question form,html.Form,2_9_3,,,,,,skipped,,144258,,,144258,144258,2024-07-30T16:19:08.716Z,144265.98,SWGPFYzQBA,incremental,anketa,6645cf40bc81b65c5faccf1d,participant,hcpib7dulz8merow,,,,,Tko strah me i zamisliti s kakvim će se ogorčenjem vratiti kući??,Strah me i zamisliti s kakvim će se ogorčenjem moj brat vratiti kući..,ai,24,20,29,,,
,Answer indication,canvas.Screen,2_9_4,,,,,,skipped,,144259,,,144258,144259,2024-07-30T16:19:08.716Z,144265.98,SWGPFYzQBA,incremental,anketa,6645cf40bc81b65c5faccf1d,participant,hcpib7dulz8merow,,,,,Tko strah me i zamisliti s kakvim će se ogorčenjem vratiti kući??,Strah me i zamisliti s kakvim će se ogorčenjem moj brat vratiti kući..,ai,24,20,29,,,
,inter-stimulus,canvas.Screen,2_9_5,,,,,,response,430.0199999999895,144259,144249.3,144265.98,144696,144702,2024-07-30T16:19:09.159Z,144732.64,SWGPFYzQBA,incremental,anketa,6645cf40bc81b65c5faccf1d,participant,hcpib7dulz8merow,,,mousedown,,Tko strah me i zamisliti s kakvim će se ogorčenjem vratiti kući??,Strah me i zamisliti s kakvim će se ogorčenjem moj brat vratiti kući..,ai,24,20,29,,,
,Sequence,flow.Sequence,2_9,,,,,,completion,5946.5199999999895,138720,138732.8,138749.48,144696,144702,2024-07-30T16:19:09.159Z,144732.64,SWGPFYzQBA,incremental,anketa,6645cf40bc81b65c5faccf1d,participant,hcpib7dulz8merow,,,,,Tko strah me i zamisliti s kakvim će se ogorčenjem vratiti kući??,Strah me i zamisliti s kakvim će se ogorčenjem moj brat vratiti kući..,ai,24,20,29,,,
,context,canvas.Screen,2_10_0_0,,,,,,response,2182.359999999986,144702,144715.96,144732.64,146915,146930,2024-07-30T16:19:11.387Z,146949.22,SWGPFYzQBA,incremental,anketa,6645cf40bc81b65c5faccf1d,participant,hcpib7dulz8merow,,,click,,"Oni su se svađali navečer, ali ujutro su sve pritužbe već bile zaboravljene..","Navečer su se svađali, ali ujutro su sve pritužbe već bile zaboravljene..",gf,44,40,48,,,
,Timer frame,html.Frame,2_10_0,,,,,,,2197.359999999986,144702,144715.96,144732.64,146930,146930,2024-07-30T16:19:11.387Z,146949.22,SWGPFYzQBA,incremental,anketa,6645cf40bc81b65c5faccf1d,participant,hcpib7dulz8merow,,,,,"Oni su se svađali navečer, ali ujutro su sve pritužbe već bile zaboravljene..","Navečer su se svađali, ali ujutro su sve pritužbe već bile zaboravljene..",gf,44,40,48,,,
,stimulus,canvas.Screen,2_10_1_0,,,,,,response,5043.779999999999,146930,146932.56,146949.22,151993,152002,2024-07-30T16:19:16.459Z,152015.76,SWGPFYzQBA,incremental,anketa,6645cf40bc81b65c5faccf1d,participant,hcpib7dulz8merow,,5,click @5,,"Oni su se svađali navečer, ali ujutro su sve pritužbe već bile zaboravljene..","Navečer su se svađali, ali ujutro su sve pritužbe već bile zaboravljene..",gf,44,40,48,,,
,Timer frame,html.Frame,2_10_1,,,,,,,5052.779999999999,146930,146932.56,146949.22,152002,152002,2024-07-30T16:19:16.459Z,152015.76,SWGPFYzQBA,incremental,anketa,6645cf40bc81b65c5faccf1d,participant,hcpib7dulz8merow,,,,,"Oni su se svađali navečer, ali ujutro su sve pritužbe već bile zaboravljene..","Navečer su se svađali, ali ujutro su sve pritužbe već bile zaboravljene..",gf,44,40,48,,,
,Spremanje,canvas.Screen,2_10_2,,,,,,skipped,,152002,,,152002,152002,2024-07-30T16:19:16.459Z,152015.76,SWGPFYzQBA,incremental,anketa,6645cf40bc81b65c5faccf1d,participant,hcpib7dulz8merow,,,,,"Oni su se svađali navečer, ali ujutro su sve pritužbe već bile zaboravljene..","Navečer su se svađali, ali ujutro su sve pritužbe već bile zaboravljene..",gf,44,40,48,,,
,Question form,html.Form,2_10_3,,,,,,skipped,,152002,,,152002,152002,2024-07-30T16:19:16.459Z,152015.76,SWGPFYzQBA,incremental,anketa,6645cf40bc81b65c5faccf1d,participant,hcpib7dulz8merow,,,,,"Oni su se svađali navečer, ali ujutro su sve pritužbe već bile zaboravljene..","Navečer su se svađali, ali ujutro su sve pritužbe već bile zaboravljene..",gf,44,40,48,,,
,Answer indication,canvas.Screen,2_10_4,,,,,,skipped,,152003,,,152002,152003,2024-07-30T16:19:16.460Z,152015.76,SWGPFYzQBA,incremental,anketa,6645cf40bc81b65c5faccf1d,participant,hcpib7dulz8merow,,,,,"Oni su se svađali navečer, ali ujutro su sve pritužbe već bile zaboravljene..","Navečer su se svađali, ali ujutro su sve pritužbe već bile zaboravljene..",gf,44,40,48,,,
,inter-stimulus,canvas.Screen,2_10_5,,,,,,response,368.2399999999907,152003,151999.1,152015.76,152384,152390,2024-07-30T16:19:16.848Z,152415.74,SWGPFYzQBA,incremental,anketa,6645cf40bc81b65c5faccf1d,participant,hcpib7dulz8merow,,,mousedown,,"Oni su se svađali navečer, ali ujutro su sve pritužbe već bile zaboravljene..","Navečer su se svađali, ali ujutro su sve pritužbe već bile zaboravljene..",gf,44,40,48,,,
,Sequence,flow.Sequence,2_10,,,,,,completion,7651.359999999986,144702,144715.96,144732.64,152384,152390,2024-07-30T16:19:16.848Z,152415.74,SWGPFYzQBA,incremental,anketa,6645cf40bc81b65c5faccf1d,participant,hcpib7dulz8merow,,,,,"Oni su se svađali navečer, ali ujutro su sve pritužbe već bile zaboravljene..","Navečer su se svađali, ali ujutro su sve pritužbe već bile zaboravljene..",gf,44,40,48,,,
,context,canvas.Screen,2_11_0_0,,,,,,response,1593.2600000000093,152390,152399.08,152415.74,154009,154022,2024-07-30T16:19:18.479Z,154032.36,SWGPFYzQBA,incremental,anketa,6645cf40bc81b65c5faccf1d,participant,hcpib7dulz8merow,,,click,,Što je kupio i majicu?,On je kupio tenisice I majicu.,csi,0,0,0,,,2305
,Timer frame,html.Frame,2_11_0,,,,,,,1606.2600000000093,152390,152399.08,152415.74,154022,154022,2024-07-30T16:19:18.479Z,154032.36,SWGPFYzQBA,incremental,anketa,6645cf40bc81b65c5faccf1d,participant,hcpib7dulz8merow,,,,,Što je kupio i majicu?,On je kupio tenisice I majicu.,csi,0,0,0,,,2305
,stimulus,canvas.Screen,2_11_1_0,,,,,,response,1835.640000000014,154023,154015.7,154032.36,155868,155881,2024-07-30T16:19:20.339Z,155898.96,SWGPFYzQBA,incremental,anketa,6645cf40bc81b65c5faccf1d,participant,hcpib7dulz8merow,,1,click @1,,Što je kupio i majicu?,On je kupio tenisice I majicu.,csi,0,0,0,,,2305
,Timer frame,html.Frame,2_11_1,,,,,,,1848.640000000014,154022,154015.7,154032.36,155881,155881,2024-07-30T16:19:20.339Z,155898.96,SWGPFYzQBA,incremental,anketa,6645cf40bc81b65c5faccf1d,participant,hcpib7dulz8merow,,,,,Što je kupio i majicu?,On je kupio tenisice I majicu.,csi,0,0,0,,,2305
,Spremanje,canvas.Screen,2_11_2,,,,,,skipped,,155881,,,155881,155881,2024-07-30T16:19:20.339Z,155898.96,SWGPFYzQBA,incremental,anketa,6645cf40bc81b65c5faccf1d,participant,hcpib7dulz8merow,,,,,Što je kupio i majicu?,On je kupio tenisice I majicu.,csi,0,0,0,,,2305
,Question form,html.Form,2_11_3,,,,,,skipped,,155882,,,155881,155882,2024-07-30T16:19:20.339Z,155898.96,SWGPFYzQBA,incremental,anketa,6645cf40bc81b65c5faccf1d,participant,hcpib7dulz8merow,,,,,Što je kupio i majicu?,On je kupio tenisice I majicu.,csi,0,0,0,,,2305
,Answer indication,canvas.Screen,2_11_4,,,,,,skipped,,155882,,,155881,155883,2024-07-30T16:19:20.340Z,155898.96,SWGPFYzQBA,incremental,anketa,6645cf40bc81b65c5faccf1d,participant,hcpib7dulz8merow,,,,,Što je kupio i majicu?,On je kupio tenisice I majicu.,csi,0,0,0,,,2305
,inter-stimulus,canvas.Screen,2_11_5,,,,,,response,235.04000000000815,155883,155882.3,155898.96,156134,156138,2024-07-30T16:19:20.594Z,156165.64,SWGPFYzQBA,incremental,anketa,6645cf40bc81b65c5faccf1d,participant,hcpib7dulz8merow,,,mousedown,,Što je kupio i majicu?,On je kupio tenisice I majicu.,csi,0,0,0,,,2305
,Sequence,flow.Sequence,2_11,,,,,,completion,3718.2600000000093,152390,152399.08,152415.74,156134,156138,2024-07-30T16:19:20.595Z,156165.64,SWGPFYzQBA,incremental,anketa,6645cf40bc81b65c5faccf1d,participant,hcpib7dulz8merow,,,,,Što je kupio i majicu?,On je kupio tenisice I majicu.,csi,0,0,0,,,2305
,context,canvas.Screen,2_12_0_0,,,,,,response,3327.359999999986,156138,156148.96,156165.64,159493,159499,2024-07-30T16:19:23.957Z,159515.54,SWGPFYzQBA,incremental,anketa,6645cf40bc81b65c5faccf1d,participant,hcpib7dulz8merow,,,click,,Kolike su trenutno plaće u hrvatskom sportu?,Kolike plaće su trenutno u hrvatskom sportu?,lbc,,,35,,,
,Timer frame,html.Frame,2_12_0,,,,,,,3333.359999999986,156138,156148.96,156165.64,159499,159500,2024-07-30T16:19:23.957Z,159515.54,SWGPFYzQBA,incremental,anketa,6645cf40bc81b65c5faccf1d,participant,hcpib7dulz8merow,,,,,Kolike su trenutno plaće u hrvatskom sportu?,Kolike plaće su trenutno u hrvatskom sportu?,lbc,,,35,,,
,stimulus,canvas.Screen,2_12_1_0,,,,,,response,2743.459999999992,159500,159498.86,159515.54,162259,162274,2024-07-30T16:19:26.731Z,162282.12,SWGPFYzQBA,incremental,anketa,6645cf40bc81b65c5faccf1d,participant,hcpib7dulz8merow,,7,click @7,,Kolike su trenutno plaće u hrvatskom sportu?,Kolike plaće su trenutno u hrvatskom sportu?,lbc,,,35,,,
,Timer frame,html.Frame,2_12_1,,,,,,,2758.459999999992,159500,159498.86,159515.54,162274,162274,2024-07-30T16:19:26.731Z,162282.12,SWGPFYzQBA,incremental,anketa,6645cf40bc81b65c5faccf1d,participant,hcpib7dulz8merow,,,,,Kolike su trenutno plaće u hrvatskom sportu?,Kolike plaće su trenutno u hrvatskom sportu?,lbc,,,35,,,
,Spremanje,canvas.Screen,2_12_2,,,,,,skipped,,162274,,,162274,162274,2024-07-30T16:19:26.731Z,162282.12,SWGPFYzQBA,incremental,anketa,6645cf40bc81b65c5faccf1d,participant,hcpib7dulz8merow,,,,,Kolike su trenutno plaće u hrvatskom sportu?,Kolike plaće su trenutno u hrvatskom sportu?,lbc,,,35,,,
,Question form,html.Form,2_12_3,,,,,,skipped,,162274,,,162274,162274,2024-07-30T16:19:26.731Z,162282.12,SWGPFYzQBA,incremental,anketa,6645cf40bc81b65c5faccf1d,participant,hcpib7dulz8merow,,,,,Kolike su trenutno plaće u hrvatskom sportu?,Kolike plaće su trenutno u hrvatskom sportu?,lbc,,,35,,,
,Answer indication,canvas.Screen,2_12_4,,,,,,skipped,,162275,,,162274,162275,2024-07-30T16:19:26.732Z,162282.12,SWGPFYzQBA,incremental,anketa,6645cf40bc81b65c5faccf1d,participant,hcpib7dulz8merow,,,,,Kolike su trenutno plaće u hrvatskom sportu?,Kolike plaće su trenutno u hrvatskom sportu?,lbc,,,35,,,
,inter-stimulus,canvas.Screen,2_12_5,,,,,,response,538.8800000000047,162275,162265.46,162282.12,162821,162834,2024-07-30T16:19:27.291Z,162865.44,SWGPFYzQBA,incremental,anketa,6645cf40bc81b65c5faccf1d,participant,hcpib7dulz8merow,,,mousedown,,Kolike su trenutno plaće u hrvatskom sportu?,Kolike plaće su trenutno u hrvatskom sportu?,lbc,,,35,,,
,Sequence,flow.Sequence,2_12,,,,,,completion,6655.359999999986,156138,156148.96,156165.64,162821,162834,2024-07-30T16:19:27.292Z,162865.44,SWGPFYzQBA,incremental,anketa,6645cf40bc81b65c5faccf1d,participant,hcpib7dulz8merow,,,,,Kolike su trenutno plaće u hrvatskom sportu?,Kolike plaće su trenutno u hrvatskom sportu?,lbc,,,35,,,
,context,canvas.Screen,2_13_0_0,,,,,,response,2252.5599999999977,162835,162848.78,162865.44,165118,165120,2024-07-30T16:19:29.577Z,165132.04,SWGPFYzQBA,incremental,anketa,6645cf40bc81b65c5faccf1d,participant,hcpib7dulz8merow,,,click,,Tko ono da je prodao svoj stan za toliki novac nevjerojatno je??,Ono da je Goran prodao svoj stan za toliki novac nevjerojatno je..,si,30,32,17,,,
,Timer frame,html.Frame,2_13_0,,,,,,,2254.5599999999977,162834,162848.78,162865.44,165120,165120,2024-07-30T16:19:29.577Z,165132.04,SWGPFYzQBA,incremental,anketa,6645cf40bc81b65c5faccf1d,participant,hcpib7dulz8merow,,,,,Tko ono da je prodao svoj stan za toliki novac nevjerojatno je??,Ono da je Goran prodao svoj stan za toliki novac nevjerojatno je..,si,30,32,17,,,
,stimulus,canvas.Screen,2_13_1_0,,,,,,response,1829.9599999999919,165120,165115.38,165132.04,166962,166972,2024-07-30T16:19:31.429Z,166981.98,SWGPFYzQBA,incremental,anketa,6645cf40bc81b65c5faccf1d,participant,hcpib7dulz8merow,,1,click @1,,Tko ono da je prodao svoj stan za toliki novac nevjerojatno je??,Ono da je Goran prodao svoj stan za toliki novac nevjerojatno je..,si,30,32,17,,,
,Timer frame,html.Frame,2_13_1,,,,,,,1839.9599999999919,165120,165115.38,165132.04,166972,166972,2024-07-30T16:19:31.429Z,166981.98,SWGPFYzQBA,incremental,anketa,6645cf40bc81b65c5faccf1d,participant,hcpib7dulz8merow,,,,,Tko ono da je prodao svoj stan za toliki novac nevjerojatno je??,Ono da je Goran prodao svoj stan za toliki novac nevjerojatno je..,si,30,32,17,,,
,Spremanje,canvas.Screen,2_13_2,,,,,,skipped,,166972,,,166972,166972,2024-07-30T16:19:31.429Z,166981.98,SWGPFYzQBA,incremental,anketa,6645cf40bc81b65c5faccf1d,participant,hcpib7dulz8merow,,,,,Tko ono da je prodao svoj stan za toliki novac nevjerojatno je??,Ono da je Goran prodao svoj stan za toliki novac nevjerojatno je..,si,30,32,17,,,
,Question form,html.Form,2_13_3,,,,,,skipped,,166972,,,166972,166972,2024-07-30T16:19:31.429Z,166981.98,SWGPFYzQBA,incremental,anketa,6645cf40bc81b65c5faccf1d,participant,hcpib7dulz8merow,,,,,Tko ono da je prodao svoj stan za toliki novac nevjerojatno je??,Ono da je Goran prodao svoj stan za toliki novac nevjerojatno je..,si,30,32,17,,,
,Answer indication,canvas.Screen,2_13_4,,,,,,skipped,,166973,,,166972,166973,2024-07-30T16:19:31.430Z,166981.98,SWGPFYzQBA,incremental,anketa,6645cf40bc81b65c5faccf1d,participant,hcpib7dulz8merow,,,,,Tko ono da je prodao svoj stan za toliki novac nevjerojatno je??,Ono da je Goran prodao svoj stan za toliki novac nevjerojatno je..,si,30,32,17,,,
,inter-stimulus,canvas.Screen,2_13_5,,,,,,response,277.0199999999895,166973,166965.32,166981.98,167259,167264,2024-07-30T16:19:31.721Z,167281.98,SWGPFYzQBA,incremental,anketa,6645cf40bc81b65c5faccf1d,participant,hcpib7dulz8merow,,,mousedown,,Tko ono da je prodao svoj stan za toliki novac nevjerojatno je??,Ono da je Goran prodao svoj stan za toliki novac nevjerojatno je..,si,30,32,17,,,
,Sequence,flow.Sequence,2_13,,,,,,completion,4393.559999999998,162834,162848.78,162865.44,167259,167264,2024-07-30T16:19:31.722Z,167281.98,SWGPFYzQBA,incremental,anketa,6645cf40bc81b65c5faccf1d,participant,hcpib7dulz8merow,,,,,Tko ono da je prodao svoj stan za toliki novac nevjerojatno je??,Ono da je Goran prodao svoj stan za toliki novac nevjerojatno je..,si,30,32,17,,,
,context,canvas.Screen,2_14_0_0,,,,,,response,2992.0199999999895,167265,167265.3,167281.98,170274,170290,2024-07-30T16:19:34.747Z,170298.56,SWGPFYzQBA,incremental,anketa,6645cf40bc81b65c5faccf1d,participant,hcpib7dulz8merow,,,click,,"Što je kupio tata, i spremila je majka?","Tata je kupio meso, a majka je spremila salatu.",csi,,,7,,,
,Timer frame,html.Frame,2_14_0,,,,,,,3008.0199999999895,167264,167265.3,167281.98,170290,170290,2024-07-30T16:19:34.747Z,170298.56,SWGPFYzQBA,incremental,anketa,6645cf40bc81b65c5faccf1d,participant,hcpib7dulz8merow,,,,,"Što je kupio tata, i spremila je majka?","Tata je kupio meso, a majka je spremila salatu.",csi,,,7,,,
,stimulus,canvas.Screen,2_14_1_0,,,,,,response,2241.4400000000023,170290,170281.9,170298.56,172540,172541,2024-07-30T16:19:36.998Z,172548.48,SWGPFYzQBA,incremental,anketa,6645cf40bc81b65c5faccf1d,participant,hcpib7dulz8merow,,1,click @1,,"Što je kupio tata, i spremila je majka?","Tata je kupio meso, a majka je spremila salatu.",csi,,,7,,,
,Timer frame,html.Frame,2_14_1,,,,,,,2242.4400000000023,170290,170281.9,170298.56,172541,172541,2024-07-30T16:19:36.998Z,172548.48,SWGPFYzQBA,incremental,anketa,6645cf40bc81b65c5faccf1d,participant,hcpib7dulz8merow,,,,,"Što je kupio tata, i spremila je majka?","Tata je kupio meso, a majka je spremila salatu.",csi,,,7,,,
,Spremanje,canvas.Screen,2_14_2,,,,,,skipped,,172541,,,172541,172541,2024-07-30T16:19:36.998Z,172548.48,SWGPFYzQBA,incremental,anketa,6645cf40bc81b65c5faccf1d,participant,hcpib7dulz8merow,,,,,"Što je kupio tata, i spremila je majka?","Tata je kupio meso, a majka je spremila salatu.",csi,,,7,,,
,Question form,html.Form,2_14_3,,,,,,skipped,,172542,,,172541,172542,2024-07-30T16:19:36.999Z,172548.48,SWGPFYzQBA,incremental,anketa,6645cf40bc81b65c5faccf1d,participant,hcpib7dulz8merow,,,,,"Što je kupio tata, i spremila je majka?","Tata je kupio meso, a majka je spremila salatu.",csi,,,7,,,
,Answer indication,canvas.Screen,2_14_4,,,,,,skipped,,172542,,,172541,172542,2024-07-30T16:19:36.999Z,172548.48,SWGPFYzQBA,incremental,anketa,6645cf40bc81b65c5faccf1d,participant,hcpib7dulz8merow,,,,,"Što je kupio tata, i spremila je majka?","Tata je kupio meso, a majka je spremila salatu.",csi,,,7,,,
,inter-stimulus,canvas.Screen,2_14_5,,,,,,response,162.51999999998952,172542,172531.82,172548.48,172711,172728,2024-07-30T16:19:37.185Z,172748.48,SWGPFYzQBA,incremental,anketa,6645cf40bc81b65c5faccf1d,participant,hcpib7dulz8merow,,,mousedown,,"Što je kupio tata, i spremila je majka?","Tata je kupio meso, a majka je spremila salatu.",csi,,,7,,,
,Sequence,flow.Sequence,2_14,,,,,,completion,5429.0199999999895,167264,167265.3,167281.98,172711,172728,2024-07-30T16:19:37.185Z,172748.48,SWGPFYzQBA,incremental,anketa,6645cf40bc81b65c5faccf1d,participant,hcpib7dulz8merow,,,,,"Što je kupio tata, i spremila je majka?","Tata je kupio meso, a majka je spremila salatu.",csi,,,7,,,
,context,canvas.Screen,2_15_0_0,,,,,,response,2744.5199999999895,172728,172731.82,172748.48,175493,175500,2024-07-30T16:19:39.957Z,175515.08,SWGPFYzQBA,incremental,anketa,6645cf40bc81b65c5faccf1d,participant,hcpib7dulz8merow,,,click,,Vidimo plažu od koje smo bili daleko.,Vidimo plažu od koje smo bili daleko.,ai,,,25,,,
,Timer frame,html.Frame,2_15_0,,,,,,,2751.5199999999895,172728,172731.82,172748.48,175500,175500,2024-07-30T16:19:39.957Z,175515.08,SWGPFYzQBA,incremental,anketa,6645cf40bc81b65c5faccf1d,participant,hcpib7dulz8merow,,,,,Vidimo plažu od koje smo bili daleko.,Vidimo plažu od koje smo bili daleko.,ai,,,25,,,
,stimulus,canvas.Screen,2_15_1_0,,,,,,response,4008.920000000013,175500,175498.4,175515.08,179524,179530,2024-07-30T16:19:43.987Z,179548.28,SWGPFYzQBA,incremental,anketa,6645cf40bc81b65c5faccf1d,participant,hcpib7dulz8merow,,2,click @2,,Vidimo plažu od koje smo bili daleko.,Vidimo plažu od koje smo bili daleko.,ai,,,25,,,
,Timer frame,html.Frame,2_15_1,,,,,,,4014.920000000013,175500,175498.4,175515.08,179530,179530,2024-07-30T16:19:43.987Z,179548.28,SWGPFYzQBA,incremental,anketa,6645cf40bc81b65c5faccf1d,participant,hcpib7dulz8merow,,,,,Vidimo plažu od koje smo bili daleko.,Vidimo plažu od koje smo bili daleko.,ai,,,25,,,
,Spremanje,canvas.Screen,2_15_2,,,,,,skipped,,179530,,,179530,179530,2024-07-30T16:19:43.987Z,179548.28,SWGPFYzQBA,incremental,anketa,6645cf40bc81b65c5faccf1d,participant,hcpib7dulz8merow,,,,,Vidimo plažu od koje smo bili daleko.,Vidimo plažu od koje smo bili daleko.,ai,,,25,,,
,Question form,html.Form,2_15_3,,,,,,skipped,,179530,,,179530,179530,2024-07-30T16:19:43.987Z,179548.28,SWGPFYzQBA,incremental,anketa,6645cf40bc81b65c5faccf1d,participant,hcpib7dulz8merow,,,,,Vidimo plažu od koje smo bili daleko.,Vidimo plažu od koje smo bili daleko.,ai,,,25,,,
,Answer indication,canvas.Screen,2_15_4,,,,,,skipped,,179531,,,179530,179531,2024-07-30T16:19:43.988Z,179548.28,SWGPFYzQBA,incremental,anketa,6645cf40bc81b65c5faccf1d,participant,hcpib7dulz8merow,,,,,Vidimo plažu od koje smo bili daleko.,Vidimo plažu od koje smo bili daleko.,ai,,,25,,,
,inter-stimulus,canvas.Screen,2_15_5,,,,,,response,413.72000000000116,179531,179531.62,179548.28,179962,179970,2024-07-30T16:19:44.427Z,179998.26,SWGPFYzQBA,incremental,anketa,6645cf40bc81b65c5faccf1d,participant,hcpib7dulz8merow,,,mousedown,,Vidimo plažu od koje smo bili daleko.,Vidimo plažu od koje smo bili daleko.,ai,,,25,,,
,Sequence,flow.Sequence,2_15,,,,,,completion,7213.5199999999895,172728,172731.82,172748.48,179962,179970,2024-07-30T16:19:44.427Z,179998.26,SWGPFYzQBA,incremental,anketa,6645cf40bc81b65c5faccf1d,participant,hcpib7dulz8merow,,,,,Vidimo plažu od koje smo bili daleko.,Vidimo plažu od koje smo bili daleko.,ai,,,25,,,
,context,canvas.Screen,2_16_0_0,,,,,,response,1479.7399999999907,179971,179981.6,179998.26,181478,181485,2024-07-30T16:19:45.943Z,181498.24,SWGPFYzQBA,incremental,anketa,6645cf40bc81b65c5faccf1d,participant,hcpib7dulz8merow,,,click,,Jedna vrlo duboka tamo postoji pećina.,Tamo postoji jedna vrlo duboka pećina.,lbc,,,37,,,
,Timer frame,html.Frame,2_16_0,,,,,,,1486.7399999999907,179971,179981.6,179998.26,181485,181485,2024-07-30T16:19:45.943Z,181498.24,SWGPFYzQBA,incremental,anketa,6645cf40bc81b65c5faccf1d,participant,hcpib7dulz8merow,,,,,Jedna vrlo duboka tamo postoji pećina.,Tamo postoji jedna vrlo duboka pećina.,lbc,,,37,,,
,stimulus,canvas.Screen,2_16_1_0,,,,,,response,2713.7600000000093,181486,181481.56,181498.24,184212,184220,2024-07-30T16:19:48.678Z,184231.48,SWGPFYzQBA,incremental,anketa,6645cf40bc81b65c5faccf1d,participant,hcpib7dulz8merow,,1,click @1,,Jedna vrlo duboka tamo postoji pećina.,Tamo postoji jedna vrlo duboka pećina.,lbc,,,37,,,
,Timer frame,html.Frame,2_16_1,,,,,,,2722.7600000000093,181485,181481.56,181498.24,184221,184221,2024-07-30T16:19:48.678Z,184231.48,SWGPFYzQBA,incremental,anketa,6645cf40bc81b65c5faccf1d,participant,hcpib7dulz8merow,,,,,Jedna vrlo duboka tamo postoji pećina.,Tamo postoji jedna vrlo duboka pećina.,lbc,,,37,,,
,Spremanje,canvas.Screen,2_16_2,,,,,,skipped,,184221,,,184221,184221,2024-07-30T16:19:48.678Z,184231.48,SWGPFYzQBA,incremental,anketa,6645cf40bc81b65c5faccf1d,participant,hcpib7dulz8merow,,,,,Jedna vrlo duboka tamo postoji pećina.,Tamo postoji jedna vrlo duboka pećina.,lbc,,,37,,,
,Question form,html.Form,2_16_3,,,,,,skipped,,184221,,,184221,184221,2024-07-30T16:19:48.678Z,184231.48,SWGPFYzQBA,incremental,anketa,6645cf40bc81b65c5faccf1d,participant,hcpib7dulz8merow,,,,,Jedna vrlo duboka tamo postoji pećina.,Tamo postoji jedna vrlo duboka pećina.,lbc,,,37,,,
,Answer indication,canvas.Screen,2_16_4,,,,,,skipped,,184224,,,184221,184225,2024-07-30T16:19:48.681Z,184231.48,SWGPFYzQBA,incremental,anketa,6645cf40bc81b65c5faccf1d,participant,hcpib7dulz8merow,,,,,Jedna vrlo duboka tamo postoji pećina.,Tamo postoji jedna vrlo duboka pećina.,lbc,,,37,,,
,inter-stimulus,canvas.Screen,2_16_5,,,,,,response,402.5199999999895,184225,184214.82,184231.48,184634,184646,2024-07-30T16:19:49.103Z,184664.8,SWGPFYzQBA,incremental,anketa,6645cf40bc81b65c5faccf1d,participant,hcpib7dulz8merow,,,mousedown,,Jedna vrlo duboka tamo postoji pećina.,Tamo postoji jedna vrlo duboka pećina.,lbc,,,37,,,
,Sequence,flow.Sequence,2_16,,,,,,completion,4635.739999999991,179971,179981.6,179998.26,184634,184646,2024-07-30T16:19:49.103Z,184664.8,SWGPFYzQBA,incremental,anketa,6645cf40bc81b65c5faccf1d,participant,hcpib7dulz8merow,,,,,Jedna vrlo duboka tamo postoji pećina.,Tamo postoji jedna vrlo duboka pećina.,lbc,,,37,,,
,context,canvas.Screen,2_17_0_0,,,,,,response,2344.2000000000116,184647,184648.14,184664.8,187009,187024,2024-07-30T16:19:51.481Z,187031.4,SWGPFYzQBA,incremental,anketa,6645cf40bc81b65c5faccf1d,participant,hcpib7dulz8merow,,,click,,Za koliko novca nevjerojatno je da je Goran prodao svoj stan??,Ono da je Goran prodao svoj stan za toliki novac nevjerojatno je..,si,31,32,18,,,
,Timer frame,html.Frame,2_17_0,,,,,,,2359.2000000000116,184646,184648.14,184664.8,187024,187024,2024-07-30T16:19:51.481Z,187031.4,SWGPFYzQBA,incremental,anketa,6645cf40bc81b65c5faccf1d,participant,hcpib7dulz8merow,,,,,Za koliko novca nevjerojatno je da je Goran prodao svoj stan??,Ono da je Goran prodao svoj stan za toliki novac nevjerojatno je..,si,31,32,18,,,
,stimulus,canvas.Screen,2_17_1_0,,,,,,response,5117.600000000006,187025,187014.74,187031.4,192149,192152,2024-07-30T16:19:56.609Z,192164.56,SWGPFYzQBA,incremental,anketa,6645cf40bc81b65c5faccf1d,participant,hcpib7dulz8merow,,2,click @2,,Za koliko novca nevjerojatno je da je Goran prodao svoj stan??,Ono da je Goran prodao svoj stan za toliki novac nevjerojatno je..,si,31,32,18,,,
,Timer frame,html.Frame,2_17_1,,,,,,,5120.600000000006,187024,187014.74,187031.4,192152,192152,2024-07-30T16:19:56.609Z,192164.56,SWGPFYzQBA,incremental,anketa,6645cf40bc81b65c5faccf1d,participant,hcpib7dulz8merow,,,,,Za koliko novca nevjerojatno je da je Goran prodao svoj stan??,Ono da je Goran prodao svoj stan za toliki novac nevjerojatno je..,si,31,32,18,,,
,Spremanje,canvas.Screen,2_17_2,,,,,,skipped,,192152,,,192152,192152,2024-07-30T16:19:56.610Z,192164.56,SWGPFYzQBA,incremental,anketa,6645cf40bc81b65c5faccf1d,participant,hcpib7dulz8merow,,,,,Za koliko novca nevjerojatno je da je Goran prodao svoj stan??,Ono da je Goran prodao svoj stan za toliki novac nevjerojatno je..,si,31,32,18,,,
,Question form,html.Form,2_17_3,,,,,,skipped,,192152,,,192152,192152,2024-07-30T16:19:56.610Z,192164.56,SWGPFYzQBA,incremental,anketa,6645cf40bc81b65c5faccf1d,participant,hcpib7dulz8merow,,,,,Za koliko novca nevjerojatno je da je Goran prodao svoj stan??,Ono da je Goran prodao svoj stan za toliki novac nevjerojatno je..,si,31,32,18,,,
,Answer indication,canvas.Screen,2_17_4,,,,,,skipped,,192154,,,192152,192154,2024-07-30T16:19:56.611Z,192164.56,SWGPFYzQBA,incremental,anketa,6645cf40bc81b65c5faccf1d,participant,hcpib7dulz8merow,,,,,Za koliko novca nevjerojatno je da je Goran prodao svoj stan??,Ono da je Goran prodao svoj stan za toliki novac nevjerojatno je..,si,31,32,18,,,
,inter-stimulus,canvas.Screen,2_17_5,,,,,,response,297.4400000000023,192154,192147.88,192164.56,192462,192468,2024-07-30T16:19:56.925Z,192497.88,SWGPFYzQBA,incremental,anketa,6645cf40bc81b65c5faccf1d,participant,hcpib7dulz8merow,,,mousedown,,Za koliko novca nevjerojatno je da je Goran prodao svoj stan??,Ono da je Goran prodao svoj stan za toliki novac nevjerojatno je..,si,31,32,18,,,
,Sequence,flow.Sequence,2_17,,,,,,completion,7797.200000000012,184646,184648.14,184664.8,192462,192468,2024-07-30T16:19:56.925Z,192497.88,SWGPFYzQBA,incremental,anketa,6645cf40bc81b65c5faccf1d,participant,hcpib7dulz8merow,,,,,Za koliko novca nevjerojatno je da je Goran prodao svoj stan??,Ono da je Goran prodao svoj stan za toliki novac nevjerojatno je..,si,31,32,18,,,
,context,canvas.Screen,2_18_0_0,,,,,,response,1573.1199999999953,192469,192481.22,192497.88,194071,194086,2024-07-30T16:19:58.543Z,194097.86,SWGPFYzQBA,incremental,anketa,6645cf40bc81b65c5faccf1d,participant,hcpib7dulz8merow,,,click,,Ove godine su se Viktor i Marta vjenčao.,Victor i Marta vjenčali su se ove godine.,nf,,,38,,,
,Timer frame,html.Frame,2_18_0,,,,,,,1588.1199999999953,192468,192481.22,192497.88,194086,194086,2024-07-30T16:19:58.543Z,194097.86,SWGPFYzQBA,incremental,anketa,6645cf40bc81b65c5faccf1d,participant,hcpib7dulz8merow,,,,,Ove godine su se Viktor i Marta vjenčao.,Victor i Marta vjenčali su se ove godine.,nf,,,38,,,
,stimulus,canvas.Screen,2_18_1_0,,,,,,response,4161.140000000014,194087,194081.2,194097.86,198259,198274,2024-07-30T16:20:02.731Z,198281.08,SWGPFYzQBA,incremental,anketa,6645cf40bc81b65c5faccf1d,participant,hcpib7dulz8merow,,3,click @3,,Ove godine su se Viktor i Marta vjenčao.,Victor i Marta vjenčali su se ove godine.,nf,,,38,,,
,Timer frame,html.Frame,2_18_1,,,,,,,4176.140000000014,194086,194081.2,194097.86,198274,198274,2024-07-30T16:20:02.731Z,198281.08,SWGPFYzQBA,incremental,anketa,6645cf40bc81b65c5faccf1d,participant,hcpib7dulz8merow,,,,,Ove godine su se Viktor i Marta vjenčao.,Victor i Marta vjenčali su se ove godine.,nf,,,38,,,
,Spremanje,canvas.Screen,2_18_2,,,,,,skipped,,198274,,,198274,198274,2024-07-30T16:20:02.731Z,198281.08,SWGPFYzQBA,incremental,anketa,6645cf40bc81b65c5faccf1d,participant,hcpib7dulz8merow,,,,,Ove godine su se Viktor i Marta vjenčao.,Victor i Marta vjenčali su se ove godine.,nf,,,38,,,
,Question form,html.Form,2_18_3,,,,,,skipped,,198274,,,198274,198274,2024-07-30T16:20:02.731Z,198281.08,SWGPFYzQBA,incremental,anketa,6645cf40bc81b65c5faccf1d,participant,hcpib7dulz8merow,,,,,Ove godine su se Viktor i Marta vjenčao.,Victor i Marta vjenčali su se ove godine.,nf,,,38,,,
,Answer indication,canvas.Screen,2_18_4,,,,,,skipped,,198275,,,198274,198275,2024-07-30T16:20:02.732Z,198281.08,SWGPFYzQBA,incremental,anketa,6645cf40bc81b65c5faccf1d,participant,hcpib7dulz8merow,,,,,Ove godine su se Viktor i Marta vjenčao.,Victor i Marta vjenčali su se ove godine.,nf,,,38,,,
,inter-stimulus,canvas.Screen,2_18_5,,,,,,response,414.9200000000128,198275,198264.42,198281.08,198696,198698,2024-07-30T16:20:03.155Z,198714.4,SWGPFYzQBA,incremental,anketa,6645cf40bc81b65c5faccf1d,participant,hcpib7dulz8merow,,,mousedown,,Ove godine su se Viktor i Marta vjenčao.,Victor i Marta vjenčali su se ove godine.,nf,,,38,,,
,Sequence,flow.Sequence,2_18,,,,,,completion,6198.119999999995,192468,192481.22,192497.88,198696,198699,2024-07-30T16:20:03.155Z,198714.4,SWGPFYzQBA,incremental,anketa,6645cf40bc81b65c5faccf1d,participant,hcpib7dulz8merow,,,,,Ove godine su se Viktor i Marta vjenčao.,Victor i Marta vjenčali su se ove godine.,nf,,,38,,,
,context,canvas.Screen,2_19_0_0,,,,,,response,1559.6000000000058,198699,198697.72,198714.4,200274,200288,2024-07-30T16:20:04.745Z,200297.68,SWGPFYzQBA,incremental,anketa,6645cf40bc81b65c5faccf1d,participant,hcpib7dulz8merow,,,click,,Nešto se mu otac za punoljetnost poklonio.,Otac mu je za punoljetnost poklonio crveni Ferrari.,nf,,,42,,,
,Timer frame,html.Frame,2_19_0,,,,,,,1573.6000000000058,198699,198697.72,198714.4,200288,200288,2024-07-30T16:20:04.745Z,200297.68,SWGPFYzQBA,incremental,anketa,6645cf40bc81b65c5faccf1d,participant,hcpib7dulz8merow,,,,,Nešto se mu otac za punoljetnost poklonio.,Otac mu je za punoljetnost poklonio crveni Ferrari.,nf,,,42,,,
,stimulus,canvas.Screen,2_19_1_0,,,,,,response,2133.320000000007,200288,200281.02,200297.68,202431,202434,2024-07-30T16:20:06.890Z,202447.62,SWGPFYzQBA,incremental,anketa,6645cf40bc81b65c5faccf1d,participant,hcpib7dulz8merow,,1,click @1,,Nešto se mu otac za punoljetnost poklonio.,Otac mu je za punoljetnost poklonio crveni Ferrari.,nf,,,42,,,
,Timer frame,html.Frame,2_19_1,,,,,,,2136.320000000007,200288,200281.02,200297.68,202434,202434,2024-07-30T16:20:06.891Z,202447.62,SWGPFYzQBA,incremental,anketa,6645cf40bc81b65c5faccf1d,participant,hcpib7dulz8merow,,,,,Nešto se mu otac za punoljetnost poklonio.,Otac mu je za punoljetnost poklonio crveni Ferrari.,nf,,,42,,,
,Spremanje,canvas.Screen,2_19_2,,,,,,skipped,,202434,,,202434,202434,2024-07-30T16:20:06.891Z,202447.62,SWGPFYzQBA,incremental,anketa,6645cf40bc81b65c5faccf1d,participant,hcpib7dulz8merow,,,,,Nešto se mu otac za punoljetnost poklonio.,Otac mu je za punoljetnost poklonio crveni Ferrari.,nf,,,42,,,
,Question form,html.Form,2_19_3,,,,,,skipped,,202434,,,202434,202434,2024-07-30T16:20:06.891Z,202447.62,SWGPFYzQBA,incremental,anketa,6645cf40bc81b65c5faccf1d,participant,hcpib7dulz8merow,,,,,Nešto se mu otac za punoljetnost poklonio.,Otac mu je za punoljetnost poklonio crveni Ferrari.,nf,,,42,,,
,Answer indication,canvas.Screen,2_19_4,,,,,,skipped,,202435,,,202434,202435,2024-07-30T16:20:06.892Z,202447.62,SWGPFYzQBA,incremental,anketa,6645cf40bc81b65c5faccf1d,participant,hcpib7dulz8merow,,,,,Nešto se mu otac za punoljetnost poklonio.,Otac mu je za punoljetnost poklonio crveni Ferrari.,nf,,,42,,,
,inter-stimulus,canvas.Screen,2_19_5,,,,,,response,217.38000000000466,202435,202430.96,202447.62,202665,202680,2024-07-30T16:20:07.136Z,202697.62,SWGPFYzQBA,incremental,anketa,6645cf40bc81b65c5faccf1d,participant,hcpib7dulz8merow,,,mousedown,,Nešto se mu otac za punoljetnost poklonio.,Otac mu je za punoljetnost poklonio crveni Ferrari.,nf,,,42,,,
,Sequence,flow.Sequence,2_19,,,,,,completion,3950.600000000006,198699,198697.72,198714.4,202665,202680,2024-07-30T16:20:07.137Z,202697.62,SWGPFYzQBA,incremental,anketa,6645cf40bc81b65c5faccf1d,participant,hcpib7dulz8merow,,,,,Nešto se mu otac za punoljetnost poklonio.,Otac mu je za punoljetnost poklonio crveni Ferrari.,nf,,,42,,,
,context,canvas.Screen,2_20_0_0,,,,,,response,2139.3800000000047,202680,202680.94,202697.62,204837,204840,2024-07-30T16:20:09.297Z,204847.56,SWGPFYzQBA,incremental,anketa,6645cf40bc81b65c5faccf1d,participant,hcpib7dulz8merow,,,click,,Za kim su banditi imali pitanja?,Ti banditi su imali pitanja za mene.,nf,,,40,,,
,Timer frame,html.Frame,2_20_0,,,,,,,2142.3800000000047,202680,202680.94,202697.62,204840,204840,2024-07-30T16:20:09.297Z,204847.56,SWGPFYzQBA,incremental,anketa,6645cf40bc81b65c5faccf1d,participant,hcpib7dulz8merow,,,,,Za kim su banditi imali pitanja?,Ti banditi su imali pitanja za mene.,nf,,,40,,,
,stimulus,canvas.Screen,2_20_1_0,,,,,,response,3551.4400000000023,204840,204830.88,204847.56,208399,208408,2024-07-30T16:20:12.865Z,208414.12,SWGPFYzQBA,incremental,anketa,6645cf40bc81b65c5faccf1d,participant,hcpib7dulz8merow,,3,click @3,,Za kim su banditi imali pitanja?,Ti banditi su imali pitanja za mene.,nf,,,40,,,
,Timer frame,html.Frame,2_20_1,,,,,,,3560.4400000000023,204840,204830.88,204847.56,208408,208408,2024-07-30T16:20:12.865Z,208414.12,SWGPFYzQBA,incremental,anketa,6645cf40bc81b65c5faccf1d,participant,hcpib7dulz8merow,,,,,Za kim su banditi imali pitanja?,Ti banditi su imali pitanja za mene.,nf,,,40,,,
,Spremanje,canvas.Screen,2_20_2,,,,,,skipped,,208408,,,208408,208408,2024-07-30T16:20:12.865Z,208414.12,SWGPFYzQBA,incremental,anketa,6645cf40bc81b65c5faccf1d,participant,hcpib7dulz8merow,,,,,Za kim su banditi imali pitanja?,Ti banditi su imali pitanja za mene.,nf,,,40,,,
,Question form,html.Form,2_20_3,,,,,,skipped,,208408,,,208408,208408,2024-07-30T16:20:12.865Z,208414.12,SWGPFYzQBA,incremental,anketa,6645cf40bc81b65c5faccf1d,participant,hcpib7dulz8merow,,,,,Za kim su banditi imali pitanja?,Ti banditi su imali pitanja za mene.,nf,,,40,,,
,Answer indication,canvas.Screen,2_20_4,,,,,,skipped,,208409,,,208408,208409,2024-07-30T16:20:12.866Z,208414.12,SWGPFYzQBA,incremental,anketa,6645cf40bc81b65c5faccf1d,participant,hcpib7dulz8merow,,,,,Za kim su banditi imali pitanja?,Ti banditi su imali pitanja za mene.,nf,,,40,,,
,inter-stimulus,canvas.Screen,2_20_5,,,,,,response,297.88000000000466,208409,208397.46,208414.12,208712,208714,2024-07-30T16:20:13.171Z,208730.78,SWGPFYzQBA,incremental,anketa,6645cf40bc81b65c5faccf1d,participant,hcpib7dulz8merow,,,mousedown,,Za kim su banditi imali pitanja?,Ti banditi su imali pitanja za mene.,nf,,,40,,,
,Sequence,flow.Sequence,2_20,,,,,,completion,6014.380000000005,202680,202680.94,202697.62,208712,208714,2024-07-30T16:20:13.171Z,208730.78,SWGPFYzQBA,incremental,anketa,6645cf40bc81b65c5faccf1d,participant,hcpib7dulz8merow,,,,,Za kim su banditi imali pitanja?,Ti banditi su imali pitanja za mene.,nf,,,40,,,
,context,canvas.Screen,2_21_0_0,,,,,,response,2012.2200000000012,208714,208714.12,208730.78,210743,210754,2024-07-30T16:20:15.211Z,210764.04,SWGPFYzQBA,incremental,anketa,6645cf40bc81b65c5faccf1d,participant,hcpib7dulz8merow,,,click,,Petar i Mara su jučer otišli u kino pogledati dobru komediju..,Jučer su Petar i Mara otišli u kino pogledati dobru komediju..,gf,35,35,46,,,
,Timer frame,html.Frame,2_21_0,,,,,,,2023.2200000000012,208714,208714.12,208730.78,210754,210754,2024-07-30T16:20:15.211Z,210764.04,SWGPFYzQBA,incremental,anketa,6645cf40bc81b65c5faccf1d,participant,hcpib7dulz8merow,,,,,Petar i Mara su jučer otišli u kino pogledati dobru komediju..,Jučer su Petar i Mara otišli u kino pogledati dobru komediju..,gf,35,35,46,,,
,stimulus,canvas.Screen,2_21_1_0,,,,,,response,4150.959999999992,210754,210747.38,210764.04,214915,214923,2024-07-30T16:20:19.381Z,214930.58,SWGPFYzQBA,incremental,anketa,6645cf40bc81b65c5faccf1d,participant,hcpib7dulz8merow,,6,click @6,,Petar i Mara su jučer otišli u kino pogledati dobru komediju..,Jučer su Petar i Mara otišli u kino pogledati dobru komediju..,gf,35,35,46,,,
,Timer frame,html.Frame,2_21_1,,,,,,,4158.959999999992,210754,210747.38,210764.04,214923,214923,2024-07-30T16:20:19.381Z,214930.58,SWGPFYzQBA,incremental,anketa,6645cf40bc81b65c5faccf1d,participant,hcpib7dulz8merow,,,,,Petar i Mara su jučer otišli u kino pogledati dobru komediju..,Jučer su Petar i Mara otišli u kino pogledati dobru komediju..,gf,35,35,46,,,
,Spremanje,canvas.Screen,2_21_2,,,,,,skipped,,214923,,,214923,214924,2024-07-30T16:20:19.381Z,214930.58,SWGPFYzQBA,incremental,anketa,6645cf40bc81b65c5faccf1d,participant,hcpib7dulz8merow,,,,,Petar i Mara su jučer otišli u kino pogledati dobru komediju..,Jučer su Petar i Mara otišli u kino pogledati dobru komediju..,gf,35,35,46,,,
,Question form,html.Form,2_21_3,,,,,,skipped,,214924,,,214923,214924,2024-07-30T16:20:19.381Z,214930.58,SWGPFYzQBA,incremental,anketa,6645cf40bc81b65c5faccf1d,participant,hcpib7dulz8merow,,,,,Petar i Mara su jučer otišli u kino pogledati dobru komediju..,Jučer su Petar i Mara otišli u kino pogledati dobru komediju..,gf,35,35,46,,,
,Answer indication,canvas.Screen,2_21_4,,,,,,skipped,,214925,,,214923,214925,2024-07-30T16:20:19.382Z,214930.58,SWGPFYzQBA,incremental,anketa,6645cf40bc81b65c5faccf1d,participant,hcpib7dulz8merow,,,,,Petar i Mara su jučer otišli u kino pogledati dobru komediju..,Jučer su Petar i Mara otišli u kino pogledati dobru komediju..,gf,35,35,46,,,
,inter-stimulus,canvas.Screen,2_21_5,,,,,,response,328.4200000000128,214925,214913.9,214930.58,215259,215272,2024-07-30T16:20:19.729Z,215297.24,SWGPFYzQBA,incremental,anketa,6645cf40bc81b65c5faccf1d,participant,hcpib7dulz8merow,,,mousedown,,Petar i Mara su jučer otišli u kino pogledati dobru komediju..,Jučer su Petar i Mara otišli u kino pogledati dobru komediju..,gf,35,35,46,,,
,Sequence,flow.Sequence,2_21,,,,,,completion,6528.220000000001,208714,208714.12,208730.78,215259,215272,2024-07-30T16:20:19.729Z,215297.24,SWGPFYzQBA,incremental,anketa,6645cf40bc81b65c5faccf1d,participant,hcpib7dulz8merow,,,,,Petar i Mara su jučer otišli u kino pogledati dobru komediju..,Jučer su Petar i Mara otišli u kino pogledati dobru komediju..,gf,35,35,46,,,
,context,canvas.Screen,2_22_0_0,,,,,,response,976.7600000000093,215272,215280.58,215297.24,216274,216280,2024-07-30T16:20:20.737Z,216297.22,SWGPFYzQBA,incremental,anketa,6645cf40bc81b65c5faccf1d,participant,hcpib7dulz8merow,,,click,,Što želiš da pronaći nije bilo teško?,Pronaći apoteku nije bilo teško.,si,,,14,,,2305
,Timer frame,html.Frame,2_22_0,,,,,,,982.7600000000093,215272,215280.58,215297.24,216280,216280,2024-07-30T16:20:20.737Z,216297.22,SWGPFYzQBA,incremental,anketa,6645cf40bc81b65c5faccf1d,participant,hcpib7dulz8merow,,,,,Što želiš da pronaći nije bilo teško?,Pronaći apoteku nije bilo teško.,si,,,14,,,2305
,stimulus,canvas.Screen,2_22_1_0,,,,,,response,1898.7799999999988,216281,216280.56,216297.22,218196,218202,2024-07-30T16:20:22.659Z,218213.84,SWGPFYzQBA,incremental,anketa,6645cf40bc81b65c5faccf1d,participant,hcpib7dulz8merow,,1,click @1,,Što želiš da pronaći nije bilo teško?,Pronaći apoteku nije bilo teško.,si,,,14,,,2305
,Timer frame,html.Frame,2_22_1,,,,,,,1904.7799999999988,216280,216280.56,216297.22,218202,218202,2024-07-30T16:20:22.659Z,218213.84,SWGPFYzQBA,incremental,anketa,6645cf40bc81b65c5faccf1d,participant,hcpib7dulz8merow,,,,,Što želiš da pronaći nije bilo teško?,Pronaći apoteku nije bilo teško.,si,,,14,,,2305
,Spremanje,canvas.Screen,2_22_2,,,,,,skipped,,218202,,,218202,218202,2024-07-30T16:20:22.659Z,218213.84,SWGPFYzQBA,incremental,anketa,6645cf40bc81b65c5faccf1d,participant,hcpib7dulz8merow,,,,,Što želiš da pronaći nije bilo teško?,Pronaći apoteku nije bilo teško.,si,,,14,,,2305
,Question form,html.Form,2_22_3,,,,,,skipped,,218202,,,218202,218202,2024-07-30T16:20:22.659Z,218213.84,SWGPFYzQBA,incremental,anketa,6645cf40bc81b65c5faccf1d,participant,hcpib7dulz8merow,,,,,Što želiš da pronaći nije bilo teško?,Pronaći apoteku nije bilo teško.,si,,,14,,,2305
,Answer indication,canvas.Screen,2_22_4,,,,,,skipped,,218203,,,218202,218203,2024-07-30T16:20:22.660Z,218213.84,SWGPFYzQBA,incremental,anketa,6645cf40bc81b65c5faccf1d,participant,hcpib7dulz8merow,,,,,Što želiš da pronaći nije bilo teško?,Pronaći apoteku nije bilo teško.,si,,,14,,,2305
,inter-stimulus,canvas.Screen,2_22_5,,,,,,response,357.1600000000035,218203,218197.16,218213.84,218571,218582,2024-07-30T16:20:23.039Z,218613.82,SWGPFYzQBA,incremental,anketa,6645cf40bc81b65c5faccf1d,participant,hcpib7dulz8merow,,,mousedown,,Što želiš da pronaći nije bilo teško?,Pronaći apoteku nije bilo teško.,si,,,14,,,2305
,Sequence,flow.Sequence,2_22,,,,,,completion,3273.7600000000093,215272,215280.58,215297.24,218571,218582,2024-07-30T16:20:23.039Z,218613.82,SWGPFYzQBA,incremental,anketa,6645cf40bc81b65c5faccf1d,participant,hcpib7dulz8merow,,,,,Što želiš da pronaći nije bilo teško?,Pronaći apoteku nije bilo teško.,si,,,14,,,2305
,context,canvas.Screen,2_23_0_0,,,,,,response,1739.179999999993,218583,218597.16,218613.82,220353,220368,2024-07-30T16:20:24.825Z,220380.44,SWGPFYzQBA,incremental,anketa,6645cf40bc81b65c5faccf1d,participant,hcpib7dulz8merow,,,click,,"Kamo da ne odeš gladan, doručkovao si?",Doručkovao si da ne odeš gladan u planine.,ai,,,21,,,
,Timer frame,html.Frame,2_23_0,,,,,,,1754.179999999993,218582,218597.16,218613.82,220368,220368,2024-07-30T16:20:24.825Z,220380.44,SWGPFYzQBA,incremental,anketa,6645cf40bc81b65c5faccf1d,participant,hcpib7dulz8merow,,,,,"Kamo da ne odeš gladan, doručkovao si?",Doručkovao si da ne odeš gladan u planine.,ai,,,21,,,
,stimulus,canvas.Screen,2_23_1_0,,,,,,response,2018.5599999999977,220368,220363.78,220380.44,222399,222403,2024-07-30T16:20:26.860Z,222413.72,SWGPFYzQBA,incremental,anketa,6645cf40bc81b65c5faccf1d,participant,hcpib7dulz8merow,,1,click @1,,"Kamo da ne odeš gladan, doručkovao si?",Doručkovao si da ne odeš gladan u planine.,ai,,,21,,,
,Timer frame,html.Frame,2_23_1,,,,,,,2022.5599999999977,220368,220363.78,220380.44,222403,222403,2024-07-30T16:20:26.861Z,222413.72,SWGPFYzQBA,incremental,anketa,6645cf40bc81b65c5faccf1d,participant,hcpib7dulz8merow,,,,,"Kamo da ne odeš gladan, doručkovao si?",Doručkovao si da ne odeš gladan u planine.,ai,,,21,,,
,Spremanje,canvas.Screen,2_23_2,,,,,,skipped,,222404,,,222403,222404,2024-07-30T16:20:26.861Z,222413.72,SWGPFYzQBA,incremental,anketa,6645cf40bc81b65c5faccf1d,participant,hcpib7dulz8merow,,,,,"Kamo da ne odeš gladan, doručkovao si?",Doručkovao si da ne odeš gladan u planine.,ai,,,21,,,
,Question form,html.Form,2_23_3,,,,,,skipped,,222404,,,222403,222404,2024-07-30T16:20:26.861Z,222413.72,SWGPFYzQBA,incremental,anketa,6645cf40bc81b65c5faccf1d,participant,hcpib7dulz8merow,,,,,"Kamo da ne odeš gladan, doručkovao si?",Doručkovao si da ne odeš gladan u planine.,ai,,,21,,,
,Answer indication,canvas.Screen,2_23_4,,,,,,skipped,,222406,,,222403,222406,2024-07-30T16:20:26.864Z,222413.72,SWGPFYzQBA,incremental,anketa,6645cf40bc81b65c5faccf1d,participant,hcpib7dulz8merow,,,,,"Kamo da ne odeš gladan, doručkovao si?",Doručkovao si da ne odeš gladan u planine.,ai,,,21,,,
,inter-stimulus,canvas.Screen,2_23_5,,,,,,response,298.27999999999884,222406,222397.04,222413.72,222712,222724,2024-07-30T16:20:27.181Z,222747.04,SWGPFYzQBA,incremental,anketa,6645cf40bc81b65c5faccf1d,participant,hcpib7dulz8merow,,,mousedown,,"Kamo da ne odeš gladan, doručkovao si?",Doručkovao si da ne odeš gladan u planine.,ai,,,21,,,
,Sequence,flow.Sequence,2_23,,,,,,completion,4098.179999999993,218582,218597.16,218613.82,222712,222724,2024-07-30T16:20:27.182Z,222747.04,SWGPFYzQBA,incremental,anketa,6645cf40bc81b65c5faccf1d,participant,hcpib7dulz8merow,,,,,"Kamo da ne odeš gladan, doručkovao si?",Doručkovao si da ne odeš gladan u planine.,ai,,,21,,,
,context,canvas.Screen,2_24_0_0,,,,,,response,980.9599999999919,222725,222730.36,222747.04,223728,223740,2024-07-30T16:20:28.197Z,223747,SWGPFYzQBA,incremental,anketa,6645cf40bc81b65c5faccf1d,participant,hcpib7dulz8merow,,,click,,"Što je on plakao, čitajući?","On je plakao, čitajući knjigu.",ai,,,22,,,
,Timer frame,html.Frame,2_24_0,,,,,,,992.9599999999919,222724,222730.36,222747.04,223740,223740,2024-07-30T16:20:28.197Z,223747,SWGPFYzQBA,incremental,anketa,6645cf40bc81b65c5faccf1d,participant,hcpib7dulz8merow,,,,,"Što je on plakao, čitajući?","On je plakao, čitajući knjigu.",ai,,,22,,,
,stimulus,canvas.Screen,2_24_1_0,,,,,,response,1293,223741,223730.34,223747,225040,225054,2024-07-30T16:20:29.510Z,225063.62,SWGPFYzQBA,incremental,anketa,6645cf40bc81b65c5faccf1d,participant,hcpib7dulz8merow,,1,click @1,,"Što je on plakao, čitajući?","On je plakao, čitajući knjigu.",ai,,,22,,,
,Timer frame,html.Frame,2_24_1,,,,,,,1307,223740,223730.34,223747,225054,225054,2024-07-30T16:20:29.511Z,225063.62,SWGPFYzQBA,incremental,anketa,6645cf40bc81b65c5faccf1d,participant,hcpib7dulz8merow,,,,,"Što je on plakao, čitajući?","On je plakao, čitajući knjigu.",ai,,,22,,,
,Spremanje,canvas.Screen,2_24_2,,,,,,skipped,,225054,,,225054,225054,2024-07-30T16:20:29.511Z,225063.62,SWGPFYzQBA,incremental,anketa,6645cf40bc81b65c5faccf1d,participant,hcpib7dulz8merow,,,,,"Što je on plakao, čitajući?","On je plakao, čitajući knjigu.",ai,,,22,,,
,Question form,html.Form,2_24_3,,,,,,skipped,,225054,,,225054,225055,2024-07-30T16:20:29.511Z,225063.62,SWGPFYzQBA,incremental,anketa,6645cf40bc81b65c5faccf1d,participant,hcpib7dulz8merow,,,,,"Što je on plakao, čitajući?","On je plakao, čitajući knjigu.",ai,,,22,,,
,Answer indication,canvas.Screen,2_24_4,,,,,,skipped,,225056,,,225054,225056,2024-07-30T16:20:29.512Z,225063.62,SWGPFYzQBA,incremental,anketa,6645cf40bc81b65c5faccf1d,participant,hcpib7dulz8merow,,,,,"Što je on plakao, čitajući?","On je plakao, čitajući knjigu.",ai,,,22,,,
,inter-stimulus,canvas.Screen,2_24_5,,,,,,response,570.3800000000047,225056,225046.96,225063.62,225634,225638,2024-07-30T16:20:30.095Z,225663.62,SWGPFYzQBA,incremental,anketa,6645cf40bc81b65c5faccf1d,participant,hcpib7dulz8merow,,,mousedown,,"Što je on plakao, čitajući?","On je plakao, čitajući knjigu.",ai,,,22,,,
,Sequence,flow.Sequence,2_24,,,,,,completion,2886.959999999992,222724,222730.36,222747.04,225634,225638,2024-07-30T16:20:30.095Z,225663.62,SWGPFYzQBA,incremental,anketa,6645cf40bc81b65c5faccf1d,participant,hcpib7dulz8merow,,,,,"Što je on plakao, čitajući?","On je plakao, čitajući knjigu.",ai,,,22,,,
,context,canvas.Screen,2_25_0_0,,,,,,response,2220.3800000000047,225638,225646.96,225663.62,227884,227892,2024-07-30T16:20:32.349Z,227913.54,SWGPFYzQBA,incremental,anketa,6645cf40bc81b65c5faccf1d,participant,hcpib7dulz8merow,,,click,,Kad je Lena pronašla honorarni posao?,Lena je pronašla honorarni posao ubrzo nakon praznika..,gf,,32,51,,,
,Timer frame,html.Frame,2_25_0,,,,,,,2228.3800000000047,225638,225646.96,225663.62,227892,227892,2024-07-30T16:20:32.349Z,227913.54,SWGPFYzQBA,incremental,anketa,6645cf40bc81b65c5faccf1d,participant,hcpib7dulz8merow,,,,,Kad je Lena pronašla honorarni posao?,Lena je pronašla honorarni posao ubrzo nakon praznika..,gf,,32,51,,,
,stimulus,canvas.Screen,2_25_1_0,,,,,,response,2017.4599999999919,227892,227896.88,227913.54,229931,229942,2024-07-30T16:20:34.400Z,229963.46,SWGPFYzQBA,incremental,anketa,6645cf40bc81b65c5faccf1d,participant,hcpib7dulz8merow,,7,click @7,,Kad je Lena pronašla honorarni posao?,Lena je pronašla honorarni posao ubrzo nakon praznika..,gf,,32,51,,,
,Timer frame,html.Frame,2_25_1,,,,,,,2028.4599999999919,227892,227896.88,227913.54,229942,229943,2024-07-30T16:20:34.400Z,229963.46,SWGPFYzQBA,incremental,anketa,6645cf40bc81b65c5faccf1d,participant,hcpib7dulz8merow,,,,,Kad je Lena pronašla honorarni posao?,Lena je pronašla honorarni posao ubrzo nakon praznika..,gf,,32,51,,,
,Spremanje,canvas.Screen,2_25_2,,,,,,skipped,,229943,,,229942,229943,2024-07-30T16:20:34.400Z,229963.46,SWGPFYzQBA,incremental,anketa,6645cf40bc81b65c5faccf1d,participant,hcpib7dulz8merow,,,,,Kad je Lena pronašla honorarni posao?,Lena je pronašla honorarni posao ubrzo nakon praznika..,gf,,32,51,,,
,Question form,html.Form,2_25_3,,,,,,skipped,,229943,,,229942,229943,2024-07-30T16:20:34.400Z,229963.46,SWGPFYzQBA,incremental,anketa,6645cf40bc81b65c5faccf1d,participant,hcpib7dulz8merow,,,,,Kad je Lena pronašla honorarni posao?,Lena je pronašla honorarni posao ubrzo nakon praznika..,gf,,32,51,,,
,Answer indication,canvas.Screen,2_25_4,,,,,,skipped,,229944,,,229942,229944,2024-07-30T16:20:34.400Z,229963.46,SWGPFYzQBA,incremental,anketa,6645cf40bc81b65c5faccf1d,participant,hcpib7dulz8merow,,,,,Kad je Lena pronašla honorarni posao?,Lena je pronašla honorarni posao ubrzo nakon praznika..,gf,,32,51,,,
,inter-stimulus,canvas.Screen,2_25_5,,,,,,response,435.54000000000815,229944,229946.82,229963.46,230399,230412,2024-07-30T16:20:34.869Z,230430.14,SWGPFYzQBA,incremental,anketa,6645cf40bc81b65c5faccf1d,participant,hcpib7dulz8merow,,,mousedown,,Kad je Lena pronašla honorarni posao?,Lena je pronašla honorarni posao ubrzo nakon praznika..,gf,,32,51,,,
,Sequence,flow.Sequence,2_25,,,,,,completion,4735.380000000005,225638,225646.96,225663.62,230399,230412,2024-07-30T16:20:34.870Z,230430.14,SWGPFYzQBA,incremental,anketa,6645cf40bc81b65c5faccf1d,participant,hcpib7dulz8merow,,,,,Kad je Lena pronašla honorarni posao?,Lena je pronašla honorarni posao ubrzo nakon praznika..,gf,,32,51,,,
,context,canvas.Screen,2_26_0_0,,,,,,response,1765.859999999986,230412,230413.46,230430.14,232196,232208,2024-07-30T16:20:36.665Z,232213.42,SWGPFYzQBA,incremental,anketa,6645cf40bc81b65c5faccf1d,participant,hcpib7dulz8merow,,,click,,Kakva je kraj mene biciklom prošla djevojka?,Kraj mene je biciklom prošla vrlo lijepa djevojka.,ai,,,27,,,
,Timer frame,html.Frame,2_26_0,,,,,,,1777.859999999986,230412,230413.46,230430.14,232208,232208,2024-07-30T16:20:36.665Z,232213.42,SWGPFYzQBA,incremental,anketa,6645cf40bc81b65c5faccf1d,participant,hcpib7dulz8merow,,,,,Kakva je kraj mene biciklom prošla djevojka?,Kraj mene je biciklom prošla vrlo lijepa djevojka.,ai,,,27,,,
,stimulus,canvas.Screen,2_26_1_0,,,,,,response,4764.579999999987,232208,232196.76,232213.42,236978,236986,2024-07-30T16:20:41.443Z,236996.6,SWGPFYzQBA,incremental,anketa,6645cf40bc81b65c5faccf1d,participant,hcpib7dulz8merow,,2,click @2,,Kakva je kraj mene biciklom prošla djevojka?,Kraj mene je biciklom prošla vrlo lijepa djevojka.,ai,,,27,,,
,Timer frame,html.Frame,2_26_1,,,,,,,4772.579999999987,232208,232196.76,232213.42,236986,236986,2024-07-30T16:20:41.443Z,236996.6,SWGPFYzQBA,incremental,anketa,6645cf40bc81b65c5faccf1d,participant,hcpib7dulz8merow,,,,,Kakva je kraj mene biciklom prošla djevojka?,Kraj mene je biciklom prošla vrlo lijepa djevojka.,ai,,,27,,,
,Spremanje,canvas.Screen,2_26_2,,,,,,skipped,,236986,,,236986,236986,2024-07-30T16:20:41.443Z,236996.6,SWGPFYzQBA,incremental,anketa,6645cf40bc81b65c5faccf1d,participant,hcpib7dulz8merow,,,,,Kakva je kraj mene biciklom prošla djevojka?,Kraj mene je biciklom prošla vrlo lijepa djevojka.,ai,,,27,,,
,Question form,html.Form,2_26_3,,,,,,skipped,,236986,,,236986,236986,2024-07-30T16:20:41.443Z,236996.6,SWGPFYzQBA,incremental,anketa,6645cf40bc81b65c5faccf1d,participant,hcpib7dulz8merow,,,,,Kakva je kraj mene biciklom prošla djevojka?,Kraj mene je biciklom prošla vrlo lijepa djevojka.,ai,,,27,,,
,Answer indication,canvas.Screen,2_26_4,,,,,,skipped,,236987,,,236986,236987,2024-07-30T16:20:41.444Z,236996.6,SWGPFYzQBA,incremental,anketa,6645cf40bc81b65c5faccf1d,participant,hcpib7dulz8merow,,,,,Kakva je kraj mene biciklom prošla djevojka?,Kraj mene je biciklom prošla vrlo lijepa djevojka.,ai,,,27,,,
,inter-stimulus,canvas.Screen,2_26_5,,,,,,response,215.39999999999418,236987,236979.92,236996.6,237212,237228,2024-07-30T16:20:41.685Z,237246.6,SWGPFYzQBA,incremental,anketa,6645cf40bc81b65c5faccf1d,participant,hcpib7dulz8merow,,,mousedown,,Kakva je kraj mene biciklom prošla djevojka?,Kraj mene je biciklom prošla vrlo lijepa djevojka.,ai,,,27,,,
,Sequence,flow.Sequence,2_26,,,,,,completion,6781.859999999986,230412,230413.46,230430.14,237212,237228,2024-07-30T16:20:41.685Z,237246.6,SWGPFYzQBA,incremental,anketa,6645cf40bc81b65c5faccf1d,participant,hcpib7dulz8merow,,,,,Kakva je kraj mene biciklom prošla djevojka?,Kraj mene je biciklom prošla vrlo lijepa djevojka.,ai,,,27,,,
,context,canvas.Screen,2_27_0_0,,,,,,response,3059.399999999994,237228,237229.92,237246.6,240306,240316,2024-07-30T16:20:44.773Z,240329.86,SWGPFYzQBA,incremental,anketa,6645cf40bc81b65c5faccf1d,participant,hcpib7dulz8merow,,,click,,Stare su samo Čehovljeve priče bile u ovoj knjižnici..,Samo su Čehovljeve priče bile stare u ovoj knjižnici..,di,35,35,33,,,
,Timer frame,html.Frame,2_27_0,,,,,,,3069.399999999994,237228,237229.92,237246.6,240316,240316,2024-07-30T16:20:44.773Z,240329.86,SWGPFYzQBA,incremental,anketa,6645cf40bc81b65c5faccf1d,participant,hcpib7dulz8merow,,,,,Stare su samo Čehovljeve priče bile u ovoj knjižnici..,Samo su Čehovljeve priče bile stare u ovoj knjižnici..,di,35,35,33,,,
,stimulus,canvas.Screen,2_27_1_0,,,,,,response,1662.140000000014,240316,240313.2,240329.86,241992,242005,2024-07-30T16:20:46.462Z,242013.14,SWGPFYzQBA,incremental,anketa,6645cf40bc81b65c5faccf1d,participant,hcpib7dulz8merow,,1,click @1,,Stare su samo Čehovljeve priče bile u ovoj knjižnici..,Samo su Čehovljeve priče bile stare u ovoj knjižnici..,di,35,35,33,,,
,Timer frame,html.Frame,2_27_1,,,,,,,1675.140000000014,240316,240313.2,240329.86,242005,242005,2024-07-30T16:20:46.463Z,242013.14,SWGPFYzQBA,incremental,anketa,6645cf40bc81b65c5faccf1d,participant,hcpib7dulz8merow,,,,,Stare su samo Čehovljeve priče bile u ovoj knjižnici..,Samo su Čehovljeve priče bile stare u ovoj knjižnici..,di,35,35,33,,,
,Spremanje,canvas.Screen,2_27_2,,,,,,skipped,,242005,,,242005,242005,2024-07-30T16:20:46.463Z,242013.14,SWGPFYzQBA,incremental,anketa,6645cf40bc81b65c5faccf1d,participant,hcpib7dulz8merow,,,,,Stare su samo Čehovljeve priče bile u ovoj knjižnici..,Samo su Čehovljeve priče bile stare u ovoj knjižnici..,di,35,35,33,,,
,Question form,html.Form,2_27_3,,,,,,skipped,,242006,,,242005,242006,2024-07-30T16:20:46.463Z,242013.14,SWGPFYzQBA,incremental,anketa,6645cf40bc81b65c5faccf1d,participant,hcpib7dulz8merow,,,,,Stare su samo Čehovljeve priče bile u ovoj knjižnici..,Samo su Čehovljeve priče bile stare u ovoj knjižnici..,di,35,35,33,,,
,Answer indication,canvas.Screen,2_27_4,,,,,,skipped,,242006,,,242005,242006,2024-07-30T16:20:46.464Z,242013.14,SWGPFYzQBA,incremental,anketa,6645cf40bc81b65c5faccf1d,participant,hcpib7dulz8merow,,,,,Stare su samo Čehovljeve priče bile u ovoj knjižnici..,Samo su Čehovljeve priče bile stare u ovoj knjižnici..,di,35,35,33,,,
,inter-stimulus,canvas.Screen,2_27_5,,,,,,response,229.85999999998603,242006,241996.48,242013.14,242243,242246,2024-07-30T16:20:46.702Z,242263.14,SWGPFYzQBA,incremental,anketa,6645cf40bc81b65c5faccf1d,participant,hcpib7dulz8merow,,,mousedown,,Stare su samo Čehovljeve priče bile u ovoj knjižnici..,Samo su Čehovljeve priče bile stare u ovoj knjižnici..,di,35,35,33,,,
,Sequence,flow.Sequence,2_27,,,,,,completion,4996.399999999994,237228,237229.92,237246.6,242243,242246,2024-07-30T16:20:46.703Z,242263.14,SWGPFYzQBA,incremental,anketa,6645cf40bc81b65c5faccf1d,participant,hcpib7dulz8merow,,,,,Stare su samo Čehovljeve priče bile u ovoj knjižnici..,Samo su Čehovljeve priče bile stare u ovoj knjižnici..,di,35,35,33,,,
,context,canvas.Screen,2_28_0_0,,,,,,response,3853.859999999986,242246,242246.46,242263.14,246117,246130,2024-07-30T16:20:50.587Z,246146.36,SWGPFYzQBA,incremental,anketa,6645cf40bc81b65c5faccf1d,participant,hcpib7dulz8merow,,,click,,Na što je teško prestati besmisleno bacati novac?,Teško je prestati besmisleno bacati novac na tenisice.,si,,,13,,,
,Timer frame,html.Frame,2_28_0,,,,,,,3866.859999999986,242246,242246.46,242263.14,246130,246130,2024-07-30T16:20:50.587Z,246146.36,SWGPFYzQBA,incremental,anketa,6645cf40bc81b65c5faccf1d,participant,hcpib7dulz8merow,,,,,Na što je teško prestati besmisleno bacati novac?,Teško je prestati besmisleno bacati novac na tenisice.,si,,,13,,,
,stimulus,canvas.Screen,2_28_1_0,,,,,,response,2737.640000000014,246130,246129.7,246146.36,248884,248889,2024-07-30T16:20:53.347Z,248896.28,SWGPFYzQBA,incremental,anketa,6645cf40bc81b65c5faccf1d,participant,hcpib7dulz8merow,,7,click @7,,Na što je teško prestati besmisleno bacati novac?,Teško je prestati besmisleno bacati novac na tenisice.,si,,,13,,,
,Timer frame,html.Frame,2_28_1,,,,,,,2742.640000000014,246130,246129.7,246146.36,248889,248889,2024-07-30T16:20:53.347Z,248896.28,SWGPFYzQBA,incremental,anketa,6645cf40bc81b65c5faccf1d,participant,hcpib7dulz8merow,,,,,Na što je teško prestati besmisleno bacati novac?,Teško je prestati besmisleno bacati novac na tenisice.,si,,,13,,,
,Spremanje,canvas.Screen,2_28_2,,,,,,skipped,,248889,,,248889,248890,2024-07-30T16:20:53.347Z,248896.28,SWGPFYzQBA,incremental,anketa,6645cf40bc81b65c5faccf1d,participant,hcpib7dulz8merow,,,,,Na što je teško prestati besmisleno bacati novac?,Teško je prestati besmisleno bacati novac na tenisice.,si,,,13,,,
,Question form,html.Form,2_28_3,,,,,,skipped,,248890,,,248889,248890,2024-07-30T16:20:53.347Z,248896.28,SWGPFYzQBA,incremental,anketa,6645cf40bc81b65c5faccf1d,participant,hcpib7dulz8merow,,,,,Na što je teško prestati besmisleno bacati novac?,Teško je prestati besmisleno bacati novac na tenisice.,si,,,13,,,
,Answer indication,canvas.Screen,2_28_4,,,,,,skipped,,248890,,,248889,248890,2024-07-30T16:20:53.348Z,248896.28,SWGPFYzQBA,incremental,anketa,6645cf40bc81b65c5faccf1d,participant,hcpib7dulz8merow,,,,,Na što je teško prestati besmisleno bacati novac?,Teško je prestati besmisleno bacati novac na tenisice.,si,,,13,,,
,inter-stimulus,canvas.Screen,2_28_5,,,,,,response,393.72000000000116,248890,248879.62,248896.28,249290,249306,2024-07-30T16:20:53.763Z,249329.6,SWGPFYzQBA,incremental,anketa,6645cf40bc81b65c5faccf1d,participant,hcpib7dulz8merow,,,mousedown,,Na što je teško prestati besmisleno bacati novac?,Teško je prestati besmisleno bacati novac na tenisice.,si,,,13,,,
,Sequence,flow.Sequence,2_28,,,,,,completion,7026.859999999986,242246,242246.46,242263.14,249290,249306,2024-07-30T16:20:53.763Z,249329.6,SWGPFYzQBA,incremental,anketa,6645cf40bc81b65c5faccf1d,participant,hcpib7dulz8merow,,,,,Na što je teško prestati besmisleno bacati novac?,Teško je prestati besmisleno bacati novac na tenisice.,si,,,13,,,
,context,canvas.Screen,2_29_0_0,,,,,,response,2569.399999999994,249306,249312.94,249329.6,251899,251908,2024-07-30T16:20:56.365Z,251929.5,SWGPFYzQBA,incremental,anketa,6645cf40bc81b65c5faccf1d,participant,hcpib7dulz8merow,,,click,,Tko se zaljubio u djevojku kad je bio dijete?,"Kad smo bili djeca, moj prijatelj i ja smo se zaljubili u istu djevojku..",gf,,33,52,,,
,Timer frame,html.Frame,2_29_0,,,,,,,2578.399999999994,249306,249312.94,249329.6,251908,251908,2024-07-30T16:20:56.365Z,251929.5,SWGPFYzQBA,incremental,anketa,6645cf40bc81b65c5faccf1d,participant,hcpib7dulz8merow,,,,,Tko se zaljubio u djevojku kad je bio dijete?,"Kad smo bili djeca, moj prijatelj i ja smo se zaljubili u istu djevojku..",gf,,33,52,,,
,stimulus,canvas.Screen,2_29_1_0,,,,,,response,4391.5,251909,251912.84,251929.5,256321,256332,2024-07-30T16:21:00.789Z,256346.06,SWGPFYzQBA,incremental,anketa,6645cf40bc81b65c5faccf1d,participant,hcpib7dulz8merow,,7,click @7,,Tko se zaljubio u djevojku kad je bio dijete?,"Kad smo bili djeca, moj prijatelj i ja smo se zaljubili u istu djevojku..",gf,,33,52,,,
,Timer frame,html.Frame,2_29_1,,,,,,,4402.5,251908,251912.84,251929.5,256332,256332,2024-07-30T16:21:00.789Z,256346.06,SWGPFYzQBA,incremental,anketa,6645cf40bc81b65c5faccf1d,participant,hcpib7dulz8merow,,,,,Tko se zaljubio u djevojku kad je bio dijete?,"Kad smo bili djeca, moj prijatelj i ja smo se zaljubili u istu djevojku..",gf,,33,52,,,
,Spremanje,canvas.Screen,2_29_2,,,,,,skipped,,256332,,,256332,256332,2024-07-30T16:21:00.789Z,256346.06,SWGPFYzQBA,incremental,anketa,6645cf40bc81b65c5faccf1d,participant,hcpib7dulz8merow,,,,,Tko se zaljubio u djevojku kad je bio dijete?,"Kad smo bili djeca, moj prijatelj i ja smo se zaljubili u istu djevojku..",gf,,33,52,,,
,Question form,html.Form,2_29_3,,,,,,skipped,,256332,,,256332,256332,2024-07-30T16:21:00.789Z,256346.06,SWGPFYzQBA,incremental,anketa,6645cf40bc81b65c5faccf1d,participant,hcpib7dulz8merow,,,,,Tko se zaljubio u djevojku kad je bio dijete?,"Kad smo bili djeca, moj prijatelj i ja smo se zaljubili u istu djevojku..",gf,,33,52,,,
,Answer indication,canvas.Screen,2_29_4,,,,,,skipped,,256333,,,256332,256333,2024-07-30T16:21:00.790Z,256346.06,SWGPFYzQBA,incremental,anketa,6645cf40bc81b65c5faccf1d,participant,hcpib7dulz8merow,,,,,Tko se zaljubio u djevojku kad je bio dijete?,"Kad smo bili djeca, moj prijatelj i ja smo se zaljubili u istu djevojku..",gf,,33,52,,,
,inter-stimulus,canvas.Screen,2_29_5,,,,,,response,365.9400000000023,256333,256329.4,256346.06,256712,256715,2024-07-30T16:21:01.172Z,256746.02,SWGPFYzQBA,incremental,anketa,6645cf40bc81b65c5faccf1d,participant,hcpib7dulz8merow,,,mousedown,,Tko se zaljubio u djevojku kad je bio dijete?,"Kad smo bili djeca, moj prijatelj i ja smo se zaljubili u istu djevojku..",gf,,33,52,,,
,Sequence,flow.Sequence,2_29,,,,,,completion,7382.399999999994,249306,249312.94,249329.6,256712,256715,2024-07-30T16:21:01.173Z,256746.02,SWGPFYzQBA,incremental,anketa,6645cf40bc81b65c5faccf1d,participant,hcpib7dulz8merow,,,,,Tko se zaljubio u djevojku kad je bio dijete?,"Kad smo bili djeca, moj prijatelj i ja smo se zaljubili u istu djevojku..",gf,,33,52,,,
,context,canvas.Screen,2_30_0_0,,,,,,response,2965.9800000000105,256717,256729.36,256746.02,259712,259722,2024-07-30T16:21:04.179Z,259729.3,SWGPFYzQBA,incremental,anketa,6645cf40bc81b65c5faccf1d,participant,hcpib7dulz8merow,,,click,,"Kamo je djevojka razmišljala o slobode, idući?","Djevojka je razmišljala o slobode, idući do mora.",ai,,,23,,,
,Timer frame,html.Frame,2_30_0,,,,,,,2975.9800000000105,256716,256729.36,256746.02,259722,259722,2024-07-30T16:21:04.179Z,259729.3,SWGPFYzQBA,incremental,anketa,6645cf40bc81b65c5faccf1d,participant,hcpib7dulz8merow,,,,,"Kamo je djevojka razmišljala o slobode, idući?","Djevojka je razmišljala o slobode, idući do mora.",ai,,,23,,,
,stimulus,canvas.Screen,2_30_1_0,,,,,,response,1373.7000000000116,259723,259712.64,259729.3,261103,261106,2024-07-30T16:21:05.563Z,261129.26,SWGPFYzQBA,incremental,anketa,6645cf40bc81b65c5faccf1d,participant,hcpib7dulz8merow,,1,click @1,,"Kamo je djevojka razmišljala o slobode, idući?","Djevojka je razmišljala o slobode, idući do mora.",ai,,,23,,,
,Timer frame,html.Frame,2_30_1,,,,,,,1376.7000000000116,259722,259712.64,259729.3,261106,261106,2024-07-30T16:21:05.563Z,261129.26,SWGPFYzQBA,incremental,anketa,6645cf40bc81b65c5faccf1d,participant,hcpib7dulz8merow,,,,,"Kamo je djevojka razmišljala o slobode, idući?","Djevojka je razmišljala o slobode, idući do mora.",ai,,,23,,,
,Spremanje,canvas.Screen,2_30_2,,,,,,skipped,,261106,,,261106,261106,2024-07-30T16:21:05.563Z,261129.26,SWGPFYzQBA,incremental,anketa,6645cf40bc81b65c5faccf1d,participant,hcpib7dulz8merow,,,,,"Kamo je djevojka razmišljala o slobode, idući?","Djevojka je razmišljala o slobode, idući do mora.",ai,,,23,,,
,Question form,html.Form,2_30_3,,,,,,skipped,,261106,,,261106,261106,2024-07-30T16:21:05.563Z,261129.26,SWGPFYzQBA,incremental,anketa,6645cf40bc81b65c5faccf1d,participant,hcpib7dulz8merow,,,,,"Kamo je djevojka razmišljala o slobode, idući?","Djevojka je razmišljala o slobode, idući do mora.",ai,,,23,,,
,Answer indication,canvas.Screen,2_30_4,,,,,,skipped,,261109,,,261106,261109,2024-07-30T16:21:05.566Z,261129.26,SWGPFYzQBA,incremental,anketa,6645cf40bc81b65c5faccf1d,participant,hcpib7dulz8merow,,,,,"Kamo je djevojka razmišljala o slobode, idući?","Djevojka je razmišljala o slobode, idući do mora.",ai,,,23,,,
,inter-stimulus,canvas.Screen,2_30_5,,,,,,response,379.7399999999907,261109,261112.58,261129.26,261509,261520,2024-07-30T16:21:05.977Z,261545.9,SWGPFYzQBA,incremental,anketa,6645cf40bc81b65c5faccf1d,participant,hcpib7dulz8merow,,,mousedown,,"Kamo je djevojka razmišljala o slobode, idući?","Djevojka je razmišljala o slobode, idući do mora.",ai,,,23,,,
,Sequence,flow.Sequence,2_30,,,,,,completion,4762.9800000000105,256716,256729.36,256746.02,261509,261520,2024-07-30T16:21:05.977Z,261545.9,SWGPFYzQBA,incremental,anketa,6645cf40bc81b65c5faccf1d,participant,hcpib7dulz8merow,,,,,"Kamo je djevojka razmišljala o slobode, idući?","Djevojka je razmišljala o slobode, idući do mora.",ai,,,23,,,
,context,canvas.Screen,2_31_0_0,,,,,,response,2760.100000000006,261521,261529.24,261545.9,264306,264316,2024-07-30T16:21:08.773Z,264329.16,SWGPFYzQBA,incremental,anketa,6645cf40bc81b65c5faccf1d,participant,hcpib7dulz8merow,,,click,,"Tko se nadaš da će napraviti prezentaciju, a Đure nacrtati sliku??","Nadaš se da će Vesna napraviti prezentaciju, a Đure nacrtati sliku..",csi,42,44,2,,,
,Timer frame,html.Frame,2_31_0,,,,,,,2770.100000000006,261520,261529.24,261545.9,264316,264316,2024-07-30T16:21:08.773Z,264329.16,SWGPFYzQBA,incremental,anketa,6645cf40bc81b65c5faccf1d,participant,hcpib7dulz8merow,,,,,"Tko se nadaš da će napraviti prezentaciju, a Đure nacrtati sliku??","Nadaš se da će Vesna napraviti prezentaciju, a Đure nacrtati sliku..",csi,42,44,2,,,
,stimulus,canvas.Screen,2_31_1_0,,,,,,response,2804.8400000000256,264317,264312.5,264329.16,267134,267148,2024-07-30T16:21:11.605Z,267162.42,SWGPFYzQBA,incremental,anketa,6645cf40bc81b65c5faccf1d,participant,hcpib7dulz8merow,,1,click @1,,"Tko se nadaš da će napraviti prezentaciju, a Đure nacrtati sliku??","Nadaš se da će Vesna napraviti prezentaciju, a Đure nacrtati sliku..",csi,42,44,2,,,
,Timer frame,html.Frame,2_31_1,,,,,,,2818.8400000000256,264316,264312.5,264329.16,267148,267148,2024-07-30T16:21:11.605Z,267162.42,SWGPFYzQBA,incremental,anketa,6645cf40bc81b65c5faccf1d,participant,hcpib7dulz8merow,,,,,"Tko se nadaš da će napraviti prezentaciju, a Đure nacrtati sliku??","Nadaš se da će Vesna napraviti prezentaciju, a Đure nacrtati sliku..",csi,42,44,2,,,
,Spremanje,canvas.Screen,2_31_2,,,,,,skipped,,267148,,,267148,267148,2024-07-30T16:21:11.605Z,267162.42,SWGPFYzQBA,incremental,anketa,6645cf40bc81b65c5faccf1d,participant,hcpib7dulz8merow,,,,,"Tko se nadaš da će napraviti prezentaciju, a Đure nacrtati sliku??","Nadaš se da će Vesna napraviti prezentaciju, a Đure nacrtati sliku..",csi,42,44,2,,,
,Question form,html.Form,2_31_3,,,,,,skipped,,267148,,,267148,267148,2024-07-30T16:21:11.606Z,267162.42,SWGPFYzQBA,incremental,anketa,6645cf40bc81b65c5faccf1d,participant,hcpib7dulz8merow,,,,,"Tko se nadaš da će napraviti prezentaciju, a Đure nacrtati sliku??","Nadaš se da će Vesna napraviti prezentaciju, a Đure nacrtati sliku..",csi,42,44,2,,,
,Answer indication,canvas.Screen,2_31_4,,,,,,skipped,,267149,,,267148,267149,2024-07-30T16:21:11.606Z,267162.42,SWGPFYzQBA,incremental,anketa,6645cf40bc81b65c5faccf1d,participant,hcpib7dulz8merow,,,,,"Tko se nadaš da će napraviti prezentaciju, a Đure nacrtati sliku??","Nadaš se da će Vesna napraviti prezentaciju, a Đure nacrtati sliku..",csi,42,44,2,,,
,inter-stimulus,canvas.Screen,2_31_5,,,,,,response,377.5800000000163,267149,267145.74,267162.42,267540,267552,2024-07-30T16:21:12.009Z,267579.06,SWGPFYzQBA,incremental,anketa,6645cf40bc81b65c5faccf1d,participant,hcpib7dulz8merow,,,mousedown,,"Tko se nadaš da će napraviti prezentaciju, a Đure nacrtati sliku??","Nadaš se da će Vesna napraviti prezentaciju, a Đure nacrtati sliku..",csi,42,44,2,,,
,Sequence,flow.Sequence,2_31,,,,,,completion,5994.100000000006,261520,261529.24,261545.9,267540,267552,2024-07-30T16:21:12.010Z,267579.06,SWGPFYzQBA,incremental,anketa,6645cf40bc81b65c5faccf1d,participant,hcpib7dulz8merow,,,,,"Tko se nadaš da će napraviti prezentaciju, a Đure nacrtati sliku??","Nadaš se da će Vesna napraviti prezentaciju, a Đure nacrtati sliku..",csi,42,44,2,,,
,context,canvas.Screen,2_32_0_0,,,,,,response,1319.9400000000023,267552,267562.4,267579.06,268899,268907,2024-07-30T16:21:13.365Z,268929.04,SWGPFYzQBA,incremental,anketa,6645cf40bc81b65c5faccf1d,participant,hcpib7dulz8merow,,,click,,Odakle si pješke ići prema Zadru?,Ideš pješke od Splita prema Zadru.,nf,,,44,,,
