meta,sender,sender_type,sender_id,age,education,croatian-knowledge,occupation,,ended_on,duration,time_run,time_render,time_show,time_end,time_commit,timestamp,time_switch,openLabId,type,task,project,status,code,confirmationCode,response,response_action,answer_true,stimulus,context,island_type,transfer_s,transfer_c,id,right_answer,question,change_date
"{""labjs_version"":""20.2.4"",""labjs_build"":{""flavor"":""production"",""commit"":""f5b4a49f956347addd546a832a3327688c2c0fef""},""location"":""https://open-lab.online/test/anketa/66a91424e3bab725623a412a"",""userAgent"":""Mozilla/5.0 (Windows NT 10.0; Win64; x64) AppleWebKit/537.36 (KHTML, like Gecko) Chrome/127.0.0.0 Safari/537.36"",""platform"":""Win32"",""language"":""hr-HR"",""locale"":""hr"",""timeZone"":""Europe/Zagreb"",""timezoneOffset"":-120,""screen_width"":1920,""screen_height"":1080,""scroll_width"":1920,""scroll_height"":863,""window_innerWidth"":1920,""window_innerHeight"":911,""devicePixelRatio"":1}",Demography form,html.Form,0,43,master,mother-tongue,Inženjer elektrotehnike,,form submission,105107.79999999981,667.7000000001863,666.366,683,105790.79999999981,105791.10000000056,2024-07-30T16:27:35.447Z,105790.952,T4AF_MdYhH,incremental,anketa,6645cf40bc81b65c5faccf1d,participant,hcpib7dulz8mr0hb,152201,,,,,,,,,,,,
,context,canvas.Screen,1_0,,,,,,response,16814.447999999436,105791.29999999981,105790.952,105790.952,122605.39999999944,122606.79999999981,2024-07-30T16:27:52.264Z,122620.2,T4AF_MdYhH,incremental,anketa,6645cf40bc81b65c5faccf1d,participant,hcpib7dulz8mr0hb,,,click,,,,,,,,,,
,stimulus,canvas.Screen,1_1,,,,,,response,30729.00000000019,122606.99999999907,122603.46,122620.2,153349.2000000002,153350.7999999998,2024-07-30T16:28:23.007Z,153362.5,T4AF_MdYhH,incremental,anketa,6645cf40bc81b65c5faccf1d,participant,hcpib7dulz8mr0hb,,7,click @7,,,,,,,,,,
,inter-stimulus,canvas.Screen,1_2,,,,,,response,5450.899999999441,153350.7999999998,153347.12,153362.5,158813.39999999944,158814.2000000002,2024-07-30T16:28:28.471Z,158827.8,T4AF_MdYhH,incremental,anketa,6645cf40bc81b65c5faccf1d,participant,hcpib7dulz8mr0hb,,,mousedown,,,,,,,,,,
,context,canvas.Screen,1_3,,,,,,response,4649.900000000198,158814.2999999998,158812.282,158827.8,163477.7000000002,163478.2000000002,2024-07-30T16:28:33.135Z,163493.1,T4AF_MdYhH,incremental,anketa,6645cf40bc81b65c5faccf1d,participant,hcpib7dulz8mr0hb,,,click,,,,,,,,,,
,stimulus,canvas.Screen,1_4,,,,,,response,13841.000000000553,163478.2999999998,163477.614,163493.1,177334.10000000056,177334.60000000056,2024-07-30T16:28:46.991Z,177339.7,T4AF_MdYhH,incremental,anketa,6645cf40bc81b65c5faccf1d,participant,hcpib7dulz8mr0hb,,1,click @1,,,,,,,,,,
,inter-stimulus,canvas.Screen,1_5,,,,,,response,3651.299999999057,177334.7000000002,177324.43,177339.7,180990.99999999907,180991.7000000002,2024-07-30T16:28:50.648Z,181005.8,T4AF_MdYhH,incremental,anketa,6645cf40bc81b65c5faccf1d,participant,hcpib7dulz8mr0hb,,,mousedown,,,,,,,,,,
,context,canvas.Screen,1_6,,,,,,response,5135.400000000198,180991.7999999998,180989.066,181005.8,186141.2000000002,186141.60000000056,2024-07-30T16:28:55.798Z,186154.2,T4AF_MdYhH,incremental,anketa,6645cf40bc81b65c5faccf1d,participant,hcpib7dulz8mr0hb,,,click,,,,,,,,,,
,stimulus,canvas.Screen,1_7_0,,,,,,timeout,14996.399999999994,186142.7000000002,186137.8,186154.2,201133.9,201135.2999999998,2024-07-30T16:29:10.791Z,201150.6,T4AF_MdYhH,incremental,anketa,6645cf40bc81b65c5faccf1d,participant,hcpib7dulz8mr0hb,,,,,,,,,,,,,
,Timer frame,html.Frame,1_7,,,,,,,14981.19999999943,186141.7000000002,186137.8,186154.2,201135.39999999944,201135.7000000002,2024-07-30T16:29:10.792Z,201167.2,T4AF_MdYhH,incremental,anketa,6645cf40bc81b65c5faccf1d,participant,hcpib7dulz8mr0hb,,,,,,,,,,,,,
,Screen,canvas.Screen,1_8,,,,,,response,446.19999999942956,201135.7000000002,201150.6,201167.2,201613.39999999944,201613.99999999907,2024-07-30T16:29:11.270Z,201617.1,T4AF_MdYhH,incremental,anketa,6645cf40bc81b65c5faccf1d,participant,hcpib7dulz8mr0hb,,,mousedown,,,,,,,,,,
,Question form,html.Form,1_9,,,,,,form submission,7965.000000000553,201614.10000000056,201600.62,201617.1,209582.10000000056,209582.2000000002,2024-07-30T16:29:19.238Z,209598.4,T4AF_MdYhH,incremental,anketa,6645cf40bc81b65c5faccf1d,participant,hcpib7dulz8mr0hb,,,,zrele,,,,,,,,,
,Screen,canvas.Screen,1_10,,,,,,response,1823.2000000005646,209582.89999999944,209567.1,209598.4,211421.60000000056,211422.2999999998,2024-07-30T16:29:21.078Z,211431.5,T4AF_MdYhH,incremental,anketa,6645cf40bc81b65c5faccf1d,participant,hcpib7dulz8mr0hb,,,mousedown,,,,,,,,,,
,inter-stimulus,canvas.Screen,1_11,,,,,,response,3733.9999999990687,211422.2999999998,211415,211431.5,215165.49999999907,215165.99999999907,2024-07-30T16:29:24.822Z,215180.5,T4AF_MdYhH,incremental,anketa,6645cf40bc81b65c5faccf1d,participant,hcpib7dulz8mr0hb,,,mousedown,,,,,,,,,,
,First stimuli,flow.Sequence,1,,,,,,completion,109374.54799999906,105791.29999999981,105790.952,105790.952,215165.49999999907,215166.99999999907,2024-07-30T16:29:24.823Z,215180.5,T4AF_MdYhH,incremental,anketa,6645cf40bc81b65c5faccf1d,participant,hcpib7dulz8mr0hb,,,,,,,,,,,,,
,context,canvas.Screen,2_0_0_0,,,,,,response,3296.600000000559,215167.2000000002,215164.524,215180.5,218477.10000000056,218477.49999999907,2024-07-30T16:29:28.134Z,218496.3,T4AF_MdYhH,incremental,anketa,6645cf40bc81b65c5faccf1d,participant,hcpib7dulz8mr0hb,,,click,,"Što je on plakao, čitajući?","On je plakao, čitajući knjigu.",ai,,,22,,,
,Timer frame,html.Frame,2_0_0,,,,,,,3296.9999999990687,215167.10000000056,215164.524,215180.5,218477.49999999907,218477.7000000002,2024-07-30T16:29:28.134Z,218496.3,T4AF_MdYhH,incremental,anketa,6645cf40bc81b65c5faccf1d,participant,hcpib7dulz8mr0hb,,,,,"Što je on plakao, čitajući?","On je plakao, čitajući knjigu.",ai,,,22,,,
,stimulus,canvas.Screen,2_0_1_0,,,,,,response,5940.999999999825,218477.7999999998,218479.862,218496.3,224437.2999999998,224437.89999999944,2024-07-30T16:29:34.094Z,224461.5,T4AF_MdYhH,incremental,anketa,6645cf40bc81b65c5faccf1d,participant,hcpib7dulz8mr0hb,,1,click @1,,"Što je on plakao, čitajući?","On je plakao, čitajući knjigu.",ai,,,22,,,
,Timer frame,html.Frame,2_0_1,,,,,,,5941.69999999908,218477.7999999998,218479.862,218496.3,224437.99999999907,224438.2999999998,2024-07-30T16:29:34.094Z,224461.5,T4AF_MdYhH,incremental,anketa,6645cf40bc81b65c5faccf1d,participant,hcpib7dulz8mr0hb,,,,,"Što je on plakao, čitajući?","On je plakao, čitajući knjigu.",ai,,,22,,,
,Spremanje,canvas.Screen,2_0_2,,,,,,skipped,,224438.2999999998,,,224437.99999999907,224438.2999999998,2024-07-30T16:29:34.094Z,224461.5,T4AF_MdYhH,incremental,anketa,6645cf40bc81b65c5faccf1d,participant,hcpib7dulz8mr0hb,,,,,"Što je on plakao, čitajući?","On je plakao, čitajući knjigu.",ai,,,22,,,
,Question form,html.Form,2_0_3,,,,,,skipped,,224438.39999999944,,,224437.99999999907,224438.39999999944,2024-07-30T16:29:34.094Z,224461.5,T4AF_MdYhH,incremental,anketa,6645cf40bc81b65c5faccf1d,participant,hcpib7dulz8mr0hb,,,,,"Što je on plakao, čitajući?","On je plakao, čitajući knjigu.",ai,,,22,,,
,Answer indication,canvas.Screen,2_0_4,,,,,,skipped,,224438.89999999944,,,224437.99999999907,224438.99999999907,2024-07-30T16:29:34.095Z,224461.5,T4AF_MdYhH,incremental,anketa,6645cf40bc81b65c5faccf1d,participant,hcpib7dulz8mr0hb,,,,,"Što je on plakao, čitajući?","On je plakao, čitajući knjigu.",ai,,,22,,,
,inter-stimulus,canvas.Screen,2_0_5,,,,,,response,4288.100000000559,224438.99999999907,224445.198,224461.5,228749.60000000056,228750.2000000002,2024-07-30T16:29:38.406Z,228760.4,T4AF_MdYhH,incremental,anketa,6645cf40bc81b65c5faccf1d,participant,hcpib7dulz8mr0hb,,,mousedown,,"Što je on plakao, čitajući?","On je plakao, čitajući knjigu.",ai,,,22,,,
,Sequence,flow.Sequence,2_0,,,,,,completion,13569.100000000559,215167.10000000056,215164.524,215180.5,228749.60000000056,228750.2999999998,2024-07-30T16:29:38.406Z,228760.4,T4AF_MdYhH,incremental,anketa,6645cf40bc81b65c5faccf1d,participant,hcpib7dulz8mr0hb,,,,,"Što je on plakao, čitajući?","On je plakao, čitajući knjigu.",ai,,,22,,,
,context,canvas.Screen,2_1_0_0,,,,,,response,5516.5999999990745,228750.49999999907,228744.294,228760.4,234276.99999999907,234277.60000000056,2024-07-30T16:29:43.934Z,234292.4,T4AF_MdYhH,incremental,anketa,6645cf40bc81b65c5faccf1d,participant,hcpib7dulz8mr0hb,,,click,,Čega si gledao prepričavanje?,Gledao si prepričavanje filma.,di,,,31,,,
,Timer frame,html.Frame,2_1_0,,,,,,,5517.200000000565,228750.39999999944,228744.294,228760.4,234277.60000000056,234277.7000000002,2024-07-30T16:29:43.934Z,234292.4,T4AF_MdYhH,incremental,anketa,6645cf40bc81b65c5faccf1d,participant,hcpib7dulz8mr0hb,,,,,Čega si gledao prepričavanje?,Gledao si prepričavanje filma.,di,,,31,,,
,stimulus,canvas.Screen,2_1_1_0,,,,,,response,7240.89999999982,234277.7000000002,234275.866,234292.4,241533.2999999998,241533.89999999944,2024-07-30T16:29:51.191Z,241557.4,T4AF_MdYhH,incremental,anketa,6645cf40bc81b65c5faccf1d,participant,hcpib7dulz8mr0hb,,5,click @5,,Čega si gledao prepričavanje?,Gledao si prepričavanje filma.,di,,,31,,,
,Timer frame,html.Frame,2_1_1,,,,,,,7241.5999999990745,234277.7000000002,234275.866,234292.4,241533.99999999907,241534.10000000056,2024-07-30T16:29:51.191Z,241557.4,T4AF_MdYhH,incremental,anketa,6645cf40bc81b65c5faccf1d,participant,hcpib7dulz8mr0hb,,,,,Čega si gledao prepričavanje?,Gledao si prepričavanje filma.,di,,,31,,,
,Spremanje,canvas.Screen,2_1_2,,,,,,skipped,,241534.10000000056,,,241533.99999999907,241534.10000000056,2024-07-30T16:29:51.191Z,241557.4,T4AF_MdYhH,incremental,anketa,6645cf40bc81b65c5faccf1d,participant,hcpib7dulz8mr0hb,,,,,Čega si gledao prepričavanje?,Gledao si prepričavanje filma.,di,,,31,,,
,Question form,html.Form,2_1_3,,,,,,skipped,,241534.2000000002,,,241533.99999999907,241534.2000000002,2024-07-30T16:29:51.191Z,241557.4,T4AF_MdYhH,incremental,anketa,6645cf40bc81b65c5faccf1d,participant,hcpib7dulz8mr0hb,,,,,Čega si gledao prepričavanje?,Gledao si prepričavanje filma.,di,,,31,,,
,Answer indication,canvas.Screen,2_1_4,,,,,,skipped,,241534.60000000056,,,241533.99999999907,241534.7000000002,2024-07-30T16:29:51.191Z,241557.4,T4AF_MdYhH,incremental,anketa,6645cf40bc81b65c5faccf1d,participant,hcpib7dulz8mr0hb,,,,,Čega si gledao prepričavanje?,Gledao si prepričavanje filma.,di,,,31,,,
,inter-stimulus,canvas.Screen,2_1_5,,,,,,response,847.999999999447,241534.7999999998,241540.754,241557.4,242405.39999999944,242405.99999999907,2024-07-30T16:29:52.063Z,242424.2,T4AF_MdYhH,incremental,anketa,6645cf40bc81b65c5faccf1d,participant,hcpib7dulz8mr0hb,,,mousedown,,Čega si gledao prepričavanje?,Gledao si prepričavanje filma.,di,,,31,,,
,Sequence,flow.Sequence,2_1,,,,,,completion,13644.999999999447,228750.39999999944,228744.294,228760.4,242405.39999999944,242406.10000000056,2024-07-30T16:29:52.063Z,242424.2,T4AF_MdYhH,incremental,anketa,6645cf40bc81b65c5faccf1d,participant,hcpib7dulz8mr0hb,,,,,Čega si gledao prepričavanje?,Gledao si prepričavanje filma.,di,,,31,,,
,context,canvas.Screen,2_2_0_0,,,,,,response,4381.099999999802,242406.2999999998,242390.7,242424.2,246805.2999999998,246805.99999999907,2024-07-30T16:29:56.463Z,246822.9,T4AF_MdYhH,incremental,anketa,6645cf40bc81b65c5faccf1d,participant,hcpib7dulz8mr0hb,,,click,,U sutra ne samo svatko jedan može gledati.,Ne može svatko gledati u sutra.,nf,,,45,,,
,Timer frame,html.Frame,2_2_0,,,,,,,4381.900000000547,242406.2000000002,242390.7,242424.2,246806.10000000056,246806.2000000002,2024-07-30T16:29:56.463Z,246822.9,T4AF_MdYhH,incremental,anketa,6645cf40bc81b65c5faccf1d,participant,hcpib7dulz8mr0hb,,,,,U sutra ne samo svatko jedan može gledati.,Ne može svatko gledati u sutra.,nf,,,45,,,
,stimulus,canvas.Screen,2_2_1_0,,,,,,response,5030.200000000565,246806.2999999998,246806.3,246822.9,251853.10000000056,251853.60000000056,2024-07-30T16:30:01.510Z,251854.7,T4AF_MdYhH,incremental,anketa,6645cf40bc81b65c5faccf1d,participant,hcpib7dulz8mr0hb,,1,click @1,,U sutra ne samo svatko jedan može gledati.,Ne može svatko gledati u sutra.,nf,,,45,,,
,Timer frame,html.Frame,2_2_1,,,,,,,5030.800000000192,246806.2000000002,246806.3,246822.9,251853.7000000002,251853.7000000002,2024-07-30T16:30:01.510Z,251854.7,T4AF_MdYhH,incremental,anketa,6645cf40bc81b65c5faccf1d,participant,hcpib7dulz8mr0hb,,,,,U sutra ne samo svatko jedan može gledati.,Ne može svatko gledati u sutra.,nf,,,45,,,
,Spremanje,canvas.Screen,2_2_2,,,,,,skipped,,251853.7999999998,,,251853.7000000002,251853.7999999998,2024-07-30T16:30:01.511Z,251854.7,T4AF_MdYhH,incremental,anketa,6645cf40bc81b65c5faccf1d,participant,hcpib7dulz8mr0hb,,,,,U sutra ne samo svatko jedan može gledati.,Ne može svatko gledati u sutra.,nf,,,45,,,
,Question form,html.Form,2_2_3,,,,,,skipped,,251853.89999999944,,,251853.7000000002,251853.99999999907,2024-07-30T16:30:01.511Z,251854.7,T4AF_MdYhH,incremental,anketa,6645cf40bc81b65c5faccf1d,participant,hcpib7dulz8mr0hb,,,,,U sutra ne samo svatko jedan može gledati.,Ne može svatko gledati u sutra.,nf,,,45,,,
,Answer indication,canvas.Screen,2_2_4,,,,,,skipped,,251854.2000000002,,,251853.7000000002,251854.2999999998,2024-07-30T16:30:01.511Z,251854.7,T4AF_MdYhH,incremental,anketa,6645cf40bc81b65c5faccf1d,participant,hcpib7dulz8mr0hb,,,,,U sutra ne samo svatko jedan može gledati.,Ne može svatko gledati u sutra.,nf,,,45,,,
,inter-stimulus,canvas.Screen,2_2_5,,,,,,response,910.6999999994296,251854.2999999998,251838.3,251854.7,252765.39999999944,252765.99999999907,2024-07-30T16:30:02.423Z,252771.2,T4AF_MdYhH,incremental,anketa,6645cf40bc81b65c5faccf1d,participant,hcpib7dulz8mr0hb,,,mousedown,,U sutra ne samo svatko jedan može gledati.,Ne može svatko gledati u sutra.,nf,,,45,,,
,Sequence,flow.Sequence,2_2,,,,,,completion,10341.19999999943,242406.2000000002,242390.7,242424.2,252765.39999999944,252766.10000000056,2024-07-30T16:30:02.423Z,252771.2,T4AF_MdYhH,incremental,anketa,6645cf40bc81b65c5faccf1d,participant,hcpib7dulz8mr0hb,,,,,U sutra ne samo svatko jedan može gledati.,Ne može svatko gledati u sutra.,nf,,,45,,,
,context,canvas.Screen,2_3_0_0,,,,,,response,3098.0000000001746,252766.2999999998,252754.63,252771.2,255869.2000000002,255869.7000000002,2024-07-30T16:30:05.526Z,255887.1,T4AF_MdYhH,incremental,anketa,6645cf40bc81b65c5faccf1d,participant,hcpib7dulz8mr0hb,,,click,,Čega je vidio muzej i obalu?,On je vidio muzej i obalu rijeke.,csi,0,0,1,,,2305
,Timer frame,html.Frame,2_3_0,,,,,,,3098.599999999802,252766.2000000002,252754.63,252771.2,255869.7999999998,255869.7999999998,2024-07-30T16:30:05.527Z,255887.1,T4AF_MdYhH,incremental,anketa,6645cf40bc81b65c5faccf1d,participant,hcpib7dulz8mr0hb,,,,,Čega je vidio muzej i obalu?,On je vidio muzej i obalu rijeke.,csi,0,0,1,,,2305
,stimulus,canvas.Screen,2_3_1_0,,,,,,response,9743.10000000018,255869.89999999944,255870.4,255887.1,265630.2000000002,265630.7999999998,2024-07-30T16:30:15.288Z,265651.4,T4AF_MdYhH,incremental,anketa,6645cf40bc81b65c5faccf1d,participant,hcpib7dulz8mr0hb,,5,click @5,,Čega je vidio muzej i obalu?,On je vidio muzej i obalu rijeke.,csi,0,0,1,,,2305
,Timer frame,html.Frame,2_3_1,,,,,,,9743.799999999435,255869.89999999944,255870.4,255887.1,265630.89999999944,265630.99999999907,2024-07-30T16:30:15.288Z,265651.4,T4AF_MdYhH,incremental,anketa,6645cf40bc81b65c5faccf1d,participant,hcpib7dulz8mr0hb,,,,,Čega je vidio muzej i obalu?,On je vidio muzej i obalu rijeke.,csi,0,0,1,,,2305
,Spremanje,canvas.Screen,2_3_2,,,,,,skipped,,265630.99999999907,,,265630.89999999944,265630.99999999907,2024-07-30T16:30:15.288Z,265651.4,T4AF_MdYhH,incremental,anketa,6645cf40bc81b65c5faccf1d,participant,hcpib7dulz8mr0hb,,,,,Čega je vidio muzej i obalu?,On je vidio muzej i obalu rijeke.,csi,0,0,1,,,2305
,Question form,html.Form,2_3_3,,,,,,skipped,,265631.10000000056,,,265630.89999999944,265631.10000000056,2024-07-30T16:30:15.288Z,265651.4,T4AF_MdYhH,incremental,anketa,6645cf40bc81b65c5faccf1d,participant,hcpib7dulz8mr0hb,,,,,Čega je vidio muzej i obalu?,On je vidio muzej i obalu rijeke.,csi,0,0,1,,,2305
,Answer indication,canvas.Screen,2_3_4,,,,,,skipped,,265631.39999999944,,,265630.89999999944,265631.39999999944,2024-07-30T16:30:15.288Z,265651.4,T4AF_MdYhH,incremental,anketa,6645cf40bc81b65c5faccf1d,participant,hcpib7dulz8mr0hb,,,,,Čega je vidio muzej i obalu?,On je vidio muzej i obalu rijeke.,csi,0,0,1,,,2305
,inter-stimulus,canvas.Screen,2_3_5,,,,,,response,3873.800000000163,265631.39999999944,265634.8,265651.4,269525.2000000002,269525.7999999998,2024-07-30T16:30:19.182Z,269533.8,T4AF_MdYhH,incremental,anketa,6645cf40bc81b65c5faccf1d,participant,hcpib7dulz8mr0hb,,,mousedown,,Čega je vidio muzej i obalu?,On je vidio muzej i obalu rijeke.,csi,0,0,1,,,2305
,Sequence,flow.Sequence,2_3,,,,,,completion,16754.000000000175,252766.2000000002,252754.63,252771.2,269525.2000000002,269525.89999999944,2024-07-30T16:30:19.183Z,269533.8,T4AF_MdYhH,incremental,anketa,6645cf40bc81b65c5faccf1d,participant,hcpib7dulz8mr0hb,,,,,Čega je vidio muzej i obalu?,On je vidio muzej i obalu rijeke.,csi,0,0,1,,,2305
,context,canvas.Screen,2_4_0_0,,,,,,response,3871.1999999990803,269525.99999999907,269517.278,269533.8,273404.99999999907,273405.60000000056,2024-07-30T16:30:23.062Z,273416.2,T4AF_MdYhH,incremental,anketa,6645cf40bc81b65c5faccf1d,participant,hcpib7dulz8mr0hb,,,click,,O čemu je Ivo cijelu večer pričao?,Ivo je cijelu večer pričao o autima.,gf,,,47,,,
,Timer frame,html.Frame,2_4_0,,,,,,,3871.900000000198,269525.89999999944,269517.278,269533.8,273405.7000000002,273405.7999999998,2024-07-30T16:30:23.062Z,273416.2,T4AF_MdYhH,incremental,anketa,6645cf40bc81b65c5faccf1d,participant,hcpib7dulz8mr0hb,,,,,O čemu je Ivo cijelu večer pričao?,Ivo je cijelu večer pričao o autima.,gf,,,47,,,
,stimulus,canvas.Screen,2_4_1_0,,,,,,response,5844.900000000547,273405.89999999944,273399.722,273416.2,279261.10000000056,279261.7999999998,2024-07-30T16:30:28.918Z,279281.4,T4AF_MdYhH,incremental,anketa,6645cf40bc81b65c5faccf1d,participant,hcpib7dulz8mr0hb,,7,click @7,,O čemu je Ivo cijelu večer pričao?,Ivo je cijelu večer pričao o autima.,gf,,,47,,,
,Timer frame,html.Frame,2_4_1,,,,,,,5845.599999999802,273405.7999999998,273399.722,273416.2,279261.7999999998,279261.89999999944,2024-07-30T16:30:28.919Z,279281.4,T4AF_MdYhH,incremental,anketa,6645cf40bc81b65c5faccf1d,participant,hcpib7dulz8mr0hb,,,,,O čemu je Ivo cijelu večer pričao?,Ivo je cijelu večer pričao o autima.,gf,,,47,,,
,Spremanje,canvas.Screen,2_4_2,,,,,,skipped,,279261.89999999944,,,279261.7999999998,279261.89999999944,2024-07-30T16:30:28.919Z,279281.4,T4AF_MdYhH,incremental,anketa,6645cf40bc81b65c5faccf1d,participant,hcpib7dulz8mr0hb,,,,,O čemu je Ivo cijelu večer pričao?,Ivo je cijelu večer pričao o autima.,gf,,,47,,,
,Question form,html.Form,2_4_3,,,,,,skipped,,279261.89999999944,,,279261.7999999998,279261.99999999907,2024-07-30T16:30:28.919Z,279281.4,T4AF_MdYhH,incremental,anketa,6645cf40bc81b65c5faccf1d,participant,hcpib7dulz8mr0hb,,,,,O čemu je Ivo cijelu večer pričao?,Ivo je cijelu večer pričao o autima.,gf,,,47,,,
,Answer indication,canvas.Screen,2_4_4,,,,,,skipped,,279262.39999999944,,,279261.7999999998,279262.39999999944,2024-07-30T16:30:28.919Z,279281.4,T4AF_MdYhH,incremental,anketa,6645cf40bc81b65c5faccf1d,participant,hcpib7dulz8mr0hb,,,,,O čemu je Ivo cijelu večer pričao?,Ivo je cijelu večer pričao o autima.,gf,,,47,,,
,inter-stimulus,canvas.Screen,2_4_5,,,,,,response,2420.2000000005355,279262.39999999944,279264.8,279281.4,281701.60000000056,281702.10000000056,2024-07-30T16:30:31.359Z,281714.4,T4AF_MdYhH,incremental,anketa,6645cf40bc81b65c5faccf1d,participant,hcpib7dulz8mr0hb,,,mousedown,,O čemu je Ivo cijelu večer pričao?,Ivo je cijelu večer pričao o autima.,gf,,,47,,,
,Sequence,flow.Sequence,2_4,,,,,,completion,12167.80000000057,269525.89999999944,269517.278,269533.8,281701.60000000056,281702.2999999998,2024-07-30T16:30:31.359Z,281714.4,T4AF_MdYhH,incremental,anketa,6645cf40bc81b65c5faccf1d,participant,hcpib7dulz8mr0hb,,,,,O čemu je Ivo cijelu večer pričao?,Ivo je cijelu večer pričao o autima.,gf,,,47,,,
,context,canvas.Screen,2_5_0_0,,,,,,response,2938.8999999997905,281702.39999999944,281697.75,281714.4,284653.2999999998,284653.7999999998,2024-07-30T16:30:34.311Z,284680.1,T4AF_MdYhH,incremental,anketa,6645cf40bc81b65c5faccf1d,participant,hcpib7dulz8mr0hb,,,click,,Što bismo voljeli da Drago napravi bez prigovora??,Voljeli bismo da Drago opere auto bez prigovora..,si,26,22,16,,,
,Timer frame,html.Frame,2_5_0,,,,,,,2939.3999999997905,281702.39999999944,281697.75,281714.4,284653.7999999998,284653.89999999944,2024-07-30T16:30:34.311Z,284680.1,T4AF_MdYhH,incremental,anketa,6645cf40bc81b65c5faccf1d,participant,hcpib7dulz8mr0hb,,,,,Što bismo voljeli da Drago napravi bez prigovora??,Voljeli bismo da Drago opere auto bez prigovora..,si,26,22,16,,,
,stimulus,canvas.Screen,2_5_1_0,,,,,,response,5237.10000000021,284654.10000000056,284663.6,284680.1,289917.2000000002,289917.7000000002,2024-07-30T16:30:39.574Z,289928.9,T4AF_MdYhH,incremental,anketa,6645cf40bc81b65c5faccf1d,participant,hcpib7dulz8mr0hb,,6,click @6,,Što bismo voljeli da Drago napravi bez prigovora??,Voljeli bismo da Drago opere auto bez prigovora..,si,26,22,16,,,
,Timer frame,html.Frame,2_5_1,,,,,,,5237.7999999994645,284653.89999999944,284663.6,284680.1,289917.89999999944,289917.89999999944,2024-07-30T16:30:39.575Z,289928.9,T4AF_MdYhH,incremental,anketa,6645cf40bc81b65c5faccf1d,participant,hcpib7dulz8mr0hb,,,,,Što bismo voljeli da Drago napravi bez prigovora??,Voljeli bismo da Drago opere auto bez prigovora..,si,26,22,16,,,
,Spremanje,canvas.Screen,2_5_2,,,,,,skipped,,289917.89999999944,,,289917.89999999944,289917.89999999944,2024-07-30T16:30:39.575Z,289928.9,T4AF_MdYhH,incremental,anketa,6645cf40bc81b65c5faccf1d,participant,hcpib7dulz8mr0hb,,,,,Što bismo voljeli da Drago napravi bez prigovora??,Voljeli bismo da Drago opere auto bez prigovora..,si,26,22,16,,,
,Question form,html.Form,2_5_3,,,,,,skipped,,289917.99999999907,,,289917.89999999944,289917.99999999907,2024-07-30T16:30:39.575Z,289928.9,T4AF_MdYhH,incremental,anketa,6645cf40bc81b65c5faccf1d,participant,hcpib7dulz8mr0hb,,,,,Što bismo voljeli da Drago napravi bez prigovora??,Voljeli bismo da Drago opere auto bez prigovora..,si,26,22,16,,,
,Answer indication,canvas.Screen,2_5_4,,,,,,skipped,,289918.2000000002,,,289917.89999999944,289918.2999999998,2024-07-30T16:30:39.575Z,289928.9,T4AF_MdYhH,incremental,anketa,6645cf40bc81b65c5faccf1d,participant,hcpib7dulz8mr0hb,,,,,Što bismo voljeli da Drago napravi bez prigovora??,Voljeli bismo da Drago opere auto bez prigovora..,si,26,22,16,,,
,inter-stimulus,canvas.Screen,2_5_5,,,,,,response,2517.2000000005355,289918.39999999944,289912.36,289928.9,292446.10000000056,292446.7000000002,2024-07-30T16:30:42.103Z,292461.5,T4AF_MdYhH,incremental,anketa,6645cf40bc81b65c5faccf1d,participant,hcpib7dulz8mr0hb,,,mousedown,,Što bismo voljeli da Drago napravi bez prigovora??,Voljeli bismo da Drago opere auto bez prigovora..,si,26,22,16,,,
,Sequence,flow.Sequence,2_5,,,,,,completion,10731.700000000536,281702.2999999998,281697.75,281714.4,292446.10000000056,292446.7999999998,2024-07-30T16:30:42.103Z,292461.5,T4AF_MdYhH,incremental,anketa,6645cf40bc81b65c5faccf1d,participant,hcpib7dulz8mr0hb,,,,,Što bismo voljeli da Drago napravi bez prigovora??,Voljeli bismo da Drago opere auto bez prigovora..,si,26,22,16,,,
,context,canvas.Screen,2_6_0_0,,,,,,response,2847.7999999998137,292446.99999999907,292445.418,292461.5,295309.2999999998,295309.7999999998,2024-07-30T16:30:44.967Z,295327.5,T4AF_MdYhH,incremental,anketa,6645cf40bc81b65c5faccf1d,participant,hcpib7dulz8mr0hb,,,click,,Što mama hvali kćer koja je u školi dobila?,Mama hvali kćer koja je u školi dobila peticu.,cnp,,,11,,,
,Timer frame,html.Frame,2_6_0,,,,,,,2848.399999999441,292446.7999999998,292445.418,292461.5,295309.89999999944,295309.89999999944,2024-07-30T16:30:44.967Z,295327.5,T4AF_MdYhH,incremental,anketa,6645cf40bc81b65c5faccf1d,participant,hcpib7dulz8mr0hb,,,,,Što mama hvali kćer koja je u školi dobila?,Mama hvali kćer koja je u školi dobila peticu.,cnp,,,11,,,
,stimulus,canvas.Screen,2_6_1_0,,,,,,response,3893.600000000559,295310.10000000056,295310.798,295327.5,299221.10000000056,299221.60000000056,2024-07-30T16:30:48.878Z,299243.2,T4AF_MdYhH,incremental,anketa,6645cf40bc81b65c5faccf1d,participant,hcpib7dulz8mr0hb,,1,click @1,,Što mama hvali kćer koja je u školi dobila?,Mama hvali kćer koja je u školi dobila peticu.,cnp,,,11,,,
,Timer frame,html.Frame,2_6_1,,,,,,,3894.100000000559,295309.99999999907,295310.798,295327.5,299221.60000000056,299221.7000000002,2024-07-30T16:30:48.878Z,299243.2,T4AF_MdYhH,incremental,anketa,6645cf40bc81b65c5faccf1d,participant,hcpib7dulz8mr0hb,,,,,Što mama hvali kćer koja je u školi dobila?,Mama hvali kćer koja je u školi dobila peticu.,cnp,,,11,,,
,Spremanje,canvas.Screen,2_6_2,,,,,,skipped,,299221.7000000002,,,299221.60000000056,299221.7000000002,2024-07-30T16:30:48.878Z,299243.2,T4AF_MdYhH,incremental,anketa,6645cf40bc81b65c5faccf1d,participant,hcpib7dulz8mr0hb,,,,,Što mama hvali kćer koja je u školi dobila?,Mama hvali kćer koja je u školi dobila peticu.,cnp,,,11,,,
,Question form,html.Form,2_6_3,,,,,,skipped,,299221.7000000002,,,299221.60000000056,299221.7999999998,2024-07-30T16:30:48.879Z,299243.2,T4AF_MdYhH,incremental,anketa,6645cf40bc81b65c5faccf1d,participant,hcpib7dulz8mr0hb,,,,,Što mama hvali kćer koja je u školi dobila?,Mama hvali kćer koja je u školi dobila peticu.,cnp,,,11,,,
,Answer indication,canvas.Screen,2_6_4,,,,,,skipped,,299222.2000000002,,,299221.60000000056,299222.2000000002,2024-07-30T16:30:48.879Z,299243.2,T4AF_MdYhH,incremental,anketa,6645cf40bc81b65c5faccf1d,participant,hcpib7dulz8mr0hb,,,,,Što mama hvali kćer koja je u školi dobila?,Mama hvali kćer koja je u školi dobila peticu.,cnp,,,11,,,
,inter-stimulus,canvas.Screen,2_6_5,,,,,,response,2066.099999999802,299222.2000000002,299226.666,299243.2,301309.2999999998,301310.10000000056,2024-07-30T16:30:50.967Z,301326,T4AF_MdYhH,incremental,anketa,6645cf40bc81b65c5faccf1d,participant,hcpib7dulz8mr0hb,,,mousedown,,Što mama hvali kćer koja je u školi dobila?,Mama hvali kćer koja je u školi dobila peticu.,cnp,,,11,,,
,Sequence,flow.Sequence,2_6,,,,,,completion,8847.799999999814,292446.7999999998,292445.418,292461.5,301309.2999999998,301310.10000000056,2024-07-30T16:30:50.967Z,301326,T4AF_MdYhH,incremental,anketa,6645cf40bc81b65c5faccf1d,participant,hcpib7dulz8mr0hb,,,,,Što mama hvali kćer koja je u školi dobila?,Mama hvali kćer koja je u školi dobila peticu.,cnp,,,11,,,
,context,canvas.Screen,2_7_0_0,,,,,,response,5199.899999999441,301310.39999999944,301309.718,301326,306525.89999999944,306526.39999999944,2024-07-30T16:30:56.183Z,306558,T4AF_MdYhH,incremental,anketa,6645cf40bc81b65c5faccf1d,participant,hcpib7dulz8mr0hb,,,click,,Od čega je djed otišao u sanatorij odmarati?,Djed je otišao u sanatorij odmarati od gužve i buke..,ai,,26,30,,,
,Timer frame,html.Frame,2_7_0,,,,,,,5200.399999999441,301310.2000000002,301309.718,301326,306526.39999999944,306526.49999999907,2024-07-30T16:30:56.183Z,306558,T4AF_MdYhH,incremental,anketa,6645cf40bc81b65c5faccf1d,participant,hcpib7dulz8mr0hb,,,,,Od čega je djed otišao u sanatorij odmarati?,Djed je otišao u sanatorij odmarati od gužve i buke..,ai,,26,30,,,
,stimulus,canvas.Screen,2_7_1_0,,,,,,response,6439.100000000559,306526.60000000056,306541.362,306558,312997.10000000056,312997.49999999907,2024-07-30T16:31:02.654Z,313006.7,T4AF_MdYhH,incremental,anketa,6645cf40bc81b65c5faccf1d,participant,hcpib7dulz8mr0hb,,5,click @5,,Od čega je djed otišao u sanatorij odmarati?,Djed je otišao u sanatorij odmarati od gužve i buke..,ai,,26,30,,,
,Timer frame,html.Frame,2_7_1,,,,,,,6439.600000000559,306526.49999999907,306541.362,306558,312997.60000000056,312997.7000000002,2024-07-30T16:31:02.654Z,313006.7,T4AF_MdYhH,incremental,anketa,6645cf40bc81b65c5faccf1d,participant,hcpib7dulz8mr0hb,,,,,Od čega je djed otišao u sanatorij odmarati?,Djed je otišao u sanatorij odmarati od gužve i buke..,ai,,26,30,,,
,Spremanje,canvas.Screen,2_7_2,,,,,,skipped,,312997.7000000002,,,312997.60000000056,312997.7000000002,2024-07-30T16:31:02.654Z,313006.7,T4AF_MdYhH,incremental,anketa,6645cf40bc81b65c5faccf1d,participant,hcpib7dulz8mr0hb,,,,,Od čega je djed otišao u sanatorij odmarati?,Djed je otišao u sanatorij odmarati od gužve i buke..,ai,,26,30,,,
,Question form,html.Form,2_7_3,,,,,,skipped,,312997.7999999998,,,312997.60000000056,312997.89999999944,2024-07-30T16:31:02.654Z,313006.7,T4AF_MdYhH,incremental,anketa,6645cf40bc81b65c5faccf1d,participant,hcpib7dulz8mr0hb,,,,,Od čega je djed otišao u sanatorij odmarati?,Djed je otišao u sanatorij odmarati od gužve i buke..,ai,,26,30,,,
,Answer indication,canvas.Screen,2_7_4,,,,,,skipped,,312998.2000000002,,,312997.60000000056,312998.2999999998,2024-07-30T16:31:02.654Z,313006.7,T4AF_MdYhH,incremental,anketa,6645cf40bc81b65c5faccf1d,participant,hcpib7dulz8mr0hb,,,,,Od čega je djed otišao u sanatorij odmarati?,Djed je otišao u sanatorij odmarati od gužve i buke..,ai,,26,30,,,
,inter-stimulus,canvas.Screen,2_7_5,,,,,,response,2310.799999999057,312998.2999999998,312990.1,313006.7,315317.49999999907,315318.10000000056,2024-07-30T16:31:04.974Z,315322.6,T4AF_MdYhH,incremental,anketa,6645cf40bc81b65c5faccf1d,participant,hcpib7dulz8mr0hb,,,mousedown,,Od čega je djed otišao u sanatorij odmarati?,Djed je otišao u sanatorij odmarati od gužve i buke..,ai,,26,30,,,
,Sequence,flow.Sequence,2_7,,,,,,completion,13991.499999999069,301310.2000000002,301309.718,301326,315317.49999999907,315318.2999999998,2024-07-30T16:31:04.974Z,315322.6,T4AF_MdYhH,incremental,anketa,6645cf40bc81b65c5faccf1d,participant,hcpib7dulz8mr0hb,,,,,Od čega je djed otišao u sanatorij odmarati?,Djed je otišao u sanatorij odmarati od gužve i buke..,ai,,26,30,,,
,context,canvas.Screen,2_8_0_0,,,,,,response,3818.500000000582,315318.39999999944,315306.082,315322.6,319141.10000000056,319141.60000000056,2024-07-30T16:31:08.798Z,319154.9,T4AF_MdYhH,incremental,anketa,6645cf40bc81b65c5faccf1d,participant,hcpib7dulz8mr0hb,,,click,,Tko ono da je prodao svoj stan za toliki novac nevjerojatno je??,Ono da je Goran prodao svoj stan za toliki novac nevjerojatno je..,si,30,32,17,,,
,Timer frame,html.Frame,2_8_0,,,,,,,3819.000000000582,315318.2999999998,315306.082,315322.6,319141.60000000056,319141.7000000002,2024-07-30T16:31:08.798Z,319154.9,T4AF_MdYhH,incremental,anketa,6645cf40bc81b65c5faccf1d,participant,hcpib7dulz8mr0hb,,,,,Tko ono da je prodao svoj stan za toliki novac nevjerojatno je??,Ono da je Goran prodao svoj stan za toliki novac nevjerojatno je..,si,30,32,17,,,
,stimulus,canvas.Screen,2_8_1_0,,,,,,response,6658.300000000163,319141.7999999998,319139.784,319154.9,325813.2000000002,325813.60000000056,2024-07-30T16:31:15.470Z,325819.9,T4AF_MdYhH,incremental,anketa,6645cf40bc81b65c5faccf1d,participant,hcpib7dulz8mr0hb,,1,click @1,,Tko ono da je prodao svoj stan za toliki novac nevjerojatno je??,Ono da je Goran prodao svoj stan za toliki novac nevjerojatno je..,si,30,32,17,,,
,Timer frame,html.Frame,2_8_1,,,,,,,6658.89999999979,319141.7000000002,319139.784,319154.9,325813.7999999998,325813.7999999998,2024-07-30T16:31:15.470Z,325819.9,T4AF_MdYhH,incremental,anketa,6645cf40bc81b65c5faccf1d,participant,hcpib7dulz8mr0hb,,,,,Tko ono da je prodao svoj stan za toliki novac nevjerojatno je??,Ono da je Goran prodao svoj stan za toliki novac nevjerojatno je..,si,30,32,17,,,
,Spremanje,canvas.Screen,2_8_2,,,,,,skipped,,325813.7999999998,,,325813.7999999998,325813.7999999998,2024-07-30T16:31:15.470Z,325819.9,T4AF_MdYhH,incremental,anketa,6645cf40bc81b65c5faccf1d,participant,hcpib7dulz8mr0hb,,,,,Tko ono da je prodao svoj stan za toliki novac nevjerojatno je??,Ono da je Goran prodao svoj stan za toliki novac nevjerojatno je..,si,30,32,17,,,
,Question form,html.Form,2_8_3,,,,,,skipped,,325813.89999999944,,,325813.7999999998,325813.89999999944,2024-07-30T16:31:15.470Z,325819.9,T4AF_MdYhH,incremental,anketa,6645cf40bc81b65c5faccf1d,participant,hcpib7dulz8mr0hb,,,,,Tko ono da je prodao svoj stan za toliki novac nevjerojatno je??,Ono da je Goran prodao svoj stan za toliki novac nevjerojatno je..,si,30,32,17,,,
,Answer indication,canvas.Screen,2_8_4,,,,,,skipped,,325814.2000000002,,,325813.7999999998,325814.2999999998,2024-07-30T16:31:15.470Z,325819.9,T4AF_MdYhH,incremental,anketa,6645cf40bc81b65c5faccf1d,participant,hcpib7dulz8mr0hb,,,,,Tko ono da je prodao svoj stan za toliki novac nevjerojatno je??,Ono da je Goran prodao svoj stan za toliki novac nevjerojatno je..,si,30,32,17,,,
,inter-stimulus,canvas.Screen,2_8_5,,,,,,response,1737.3999999997905,325814.2999999998,325803.4,325819.9,327557.2999999998,327557.89999999944,2024-07-30T16:31:17.214Z,327569.8,T4AF_MdYhH,incremental,anketa,6645cf40bc81b65c5faccf1d,participant,hcpib7dulz8mr0hb,,,mousedown,,Tko ono da je prodao svoj stan za toliki novac nevjerojatno je??,Ono da je Goran prodao svoj stan za toliki novac nevjerojatno je..,si,30,32,17,,,
,Sequence,flow.Sequence,2_8,,,,,,completion,12234.699999999837,315318.2999999998,315306.082,315322.6,327557.2999999998,327557.99999999907,2024-07-30T16:31:17.214Z,327569.8,T4AF_MdYhH,incremental,anketa,6645cf40bc81b65c5faccf1d,participant,hcpib7dulz8mr0hb,,,,,Tko ono da je prodao svoj stan za toliki novac nevjerojatno je??,Ono da je Goran prodao svoj stan za toliki novac nevjerojatno je..,si,30,32,17,,,
,context,canvas.Screen,2_9_0_0,,,,,,response,2131.4999999998254,327558.10000000056,327553.246,327569.8,329701.2999999998,329701.7000000002,2024-07-30T16:31:19.358Z,329702.332,T4AF_MdYhH,incremental,anketa,6645cf40bc81b65c5faccf1d,participant,hcpib7dulz8mr0hb,,,click,,Ove godine su se Viktor i Marta vjenčao.,Victor i Marta vjenčali su se ove godine.,nf,,,38,,,
,Timer frame,html.Frame,2_9_0,,,,,,,2131.9999999998254,327557.99999999907,327553.246,327569.8,329701.7999999998,329701.7999999998,2024-07-30T16:31:19.358Z,329702.332,T4AF_MdYhH,incremental,anketa,6645cf40bc81b65c5faccf1d,participant,hcpib7dulz8mr0hb,,,,,Ove godine su se Viktor i Marta vjenčao.,Victor i Marta vjenčali su se ove godine.,nf,,,38,,,
,stimulus,canvas.Screen,2_9_1_0,,,,,,response,5687.067999999446,329702.10000000056,329702.332,329702.332,335389.39999999944,335389.99999999907,2024-07-30T16:31:25.046Z,335401.3,T4AF_MdYhH,incremental,anketa,6645cf40bc81b65c5faccf1d,participant,hcpib7dulz8mr0hb,,1,click @1,,Ove godine su se Viktor i Marta vjenčao.,Victor i Marta vjenčali su se ove godine.,nf,,,38,,,
,Timer frame,html.Frame,2_9_1,,,,,,,5687.667999999074,329701.89999999944,329702.332,329702.332,335389.99999999907,335389.99999999907,2024-07-30T16:31:25.046Z,335401.3,T4AF_MdYhH,incremental,anketa,6645cf40bc81b65c5faccf1d,participant,hcpib7dulz8mr0hb,,,,,Ove godine su se Viktor i Marta vjenčao.,Victor i Marta vjenčali su se ove godine.,nf,,,38,,,
,Spremanje,canvas.Screen,2_9_2,,,,,,skipped,,335390.10000000056,,,335389.99999999907,335390.10000000056,2024-07-30T16:31:25.046Z,335401.3,T4AF_MdYhH,incremental,anketa,6645cf40bc81b65c5faccf1d,participant,hcpib7dulz8mr0hb,,,,,Ove godine su se Viktor i Marta vjenčao.,Victor i Marta vjenčali su se ove godine.,nf,,,38,,,
,Question form,html.Form,2_9_3,,,,,,skipped,,335390.10000000056,,,335389.99999999907,335390.10000000056,2024-07-30T16:31:25.046Z,335401.3,T4AF_MdYhH,incremental,anketa,6645cf40bc81b65c5faccf1d,participant,hcpib7dulz8mr0hb,,,,,Ove godine su se Viktor i Marta vjenčao.,Victor i Marta vjenčali su se ove godine.,nf,,,38,,,
,Answer indication,canvas.Screen,2_9_4,,,,,,skipped,,335390.49999999907,,,335389.99999999907,335390.49999999907,2024-07-30T16:31:25.047Z,335401.3,T4AF_MdYhH,incremental,anketa,6645cf40bc81b65c5faccf1d,participant,hcpib7dulz8mr0hb,,,,,Ove godine su se Viktor i Marta vjenčao.,Victor i Marta vjenčali su se ove godine.,nf,,,38,,,
,inter-stimulus,canvas.Screen,2_9_5,,,,,,response,1948.5999999994528,335390.49999999907,335384.498,335401.3,337349.89999999944,337350.49999999907,2024-07-30T16:31:27.007Z,337367.2,T4AF_MdYhH,incremental,anketa,6645cf40bc81b65c5faccf1d,participant,hcpib7dulz8mr0hb,,,mousedown,,Ove godine su se Viktor i Marta vjenčao.,Victor i Marta vjenčali su se ove godine.,nf,,,38,,,
,Sequence,flow.Sequence,2_9,,,,,,completion,9780.099999999453,327557.99999999907,327553.246,327569.8,337349.89999999944,337350.60000000056,2024-07-30T16:31:27.007Z,337367.2,T4AF_MdYhH,incremental,anketa,6645cf40bc81b65c5faccf1d,participant,hcpib7dulz8mr0hb,,,,,Ove godine su se Viktor i Marta vjenčao.,Victor i Marta vjenčali su se ove godine.,nf,,,38,,,
,context,canvas.Screen,2_10_0_0,,,,,,response,4702.400000000547,337350.7999999998,337351.072,337367.2,342069.60000000056,342070.10000000056,2024-07-30T16:31:31.726Z,342099.4,T4AF_MdYhH,incremental,anketa,6645cf40bc81b65c5faccf1d,participant,hcpib7dulz8mr0hb,,,click,,Komu tužno je gledati da ljudi i dalje daju novac??,Tužno je gledati da ljudi i dalje daju novac šarlatanima..,si,38,33,19,,,
,Timer frame,html.Frame,2_10_0,,,,,,,4702.900000000547,337350.7000000002,337351.072,337367.2,342070.10000000056,342070.10000000056,2024-07-30T16:31:31.726Z,342099.4,T4AF_MdYhH,incremental,anketa,6645cf40bc81b65c5faccf1d,participant,hcpib7dulz8mr0hb,,,,,Komu tužno je gledati da ljudi i dalje daju novac??,Tužno je gledati da ljudi i dalje daju novac šarlatanima..,si,38,33,19,,,
,stimulus,canvas.Screen,2_10_1_0,,,,,,response,7721.599999999045,342070.2000000002,342082.732,342099.4,349820.99999999907,349821.60000000056,2024-07-30T16:31:39.478Z,349847.3,T4AF_MdYhH,incremental,anketa,6645cf40bc81b65c5faccf1d,participant,hcpib7dulz8mr0hb,,3,click @3,,Komu tužno je gledati da ljudi i dalje daju novac??,Tužno je gledati da ljudi i dalje daju novac šarlatanima..,si,38,33,19,,,
,Timer frame,html.Frame,2_10_1,,,,,,,7722.2000000005355,342070.2000000002,342082.732,342099.4,349821.60000000056,349821.60000000056,2024-07-30T16:31:39.478Z,349847.3,T4AF_MdYhH,incremental,anketa,6645cf40bc81b65c5faccf1d,participant,hcpib7dulz8mr0hb,,,,,Komu tužno je gledati da ljudi i dalje daju novac??,Tužno je gledati da ljudi i dalje daju novac šarlatanima..,si,38,33,19,,,
,Spremanje,canvas.Screen,2_10_2,,,,,,skipped,,349821.60000000056,,,349821.60000000056,349821.7000000002,2024-07-30T16:31:39.478Z,349847.3,T4AF_MdYhH,incremental,anketa,6645cf40bc81b65c5faccf1d,participant,hcpib7dulz8mr0hb,,,,,Komu tužno je gledati da ljudi i dalje daju novac??,Tužno je gledati da ljudi i dalje daju novac šarlatanima..,si,38,33,19,,,
,Question form,html.Form,2_10_3,,,,,,skipped,,349821.7000000002,,,349821.60000000056,349821.7000000002,2024-07-30T16:31:39.478Z,349847.3,T4AF_MdYhH,incremental,anketa,6645cf40bc81b65c5faccf1d,participant,hcpib7dulz8mr0hb,,,,,Komu tužno je gledati da ljudi i dalje daju novac??,Tužno je gledati da ljudi i dalje daju novac šarlatanima..,si,38,33,19,,,
,Answer indication,canvas.Screen,2_10_4,,,,,,skipped,,349822.10000000056,,,349821.60000000056,349822.10000000056,2024-07-30T16:31:39.478Z,349847.3,T4AF_MdYhH,incremental,anketa,6645cf40bc81b65c5faccf1d,participant,hcpib7dulz8mr0hb,,,,,Komu tužno je gledati da ljudi i dalje daju novac??,Tužno je gledati da ljudi i dalje daju novac šarlatanima..,si,38,33,19,,,
,inter-stimulus,canvas.Screen,2_10_5,,,,,,response,909.8000000005704,349822.10000000056,349831.1,349847.3,350757.10000000056,350757.7000000002,2024-07-30T16:31:40.414Z,350763.8,T4AF_MdYhH,incremental,anketa,6645cf40bc81b65c5faccf1d,participant,hcpib7dulz8mr0hb,,,mousedown,,Komu tužno je gledati da ljudi i dalje daju novac??,Tužno je gledati da ljudi i dalje daju novac šarlatanima..,si,38,33,19,,,
,Sequence,flow.Sequence,2_10,,,,,,completion,13389.900000000547,337350.7000000002,337351.072,337367.2,350757.10000000056,350757.89999999944,2024-07-30T16:31:40.414Z,350763.8,T4AF_MdYhH,incremental,anketa,6645cf40bc81b65c5faccf1d,participant,hcpib7dulz8mr0hb,,,,,Komu tužno je gledati da ljudi i dalje daju novac??,Tužno je gledati da ljudi i dalje daju novac šarlatanima..,si,38,33,19,,,
,context,canvas.Screen,2_11_0_0,,,,,,response,1857.400000000198,350757.89999999944,350747.318,350763.8,352621.2000000002,352621.7000000002,2024-07-30T16:31:42.278Z,352630.1,T4AF_MdYhH,incremental,anketa,6645cf40bc81b65c5faccf1d,participant,hcpib7dulz8mr0hb,,,click,,Što ćemo uništit i saditi vrtove?,Uništit ćemo carstva i saditi vrtove.,csi,0,0,5,,,
,Timer frame,html.Frame,2_11_0,,,,,,,1857.9999999998254,350757.89999999944,350747.318,350763.8,352621.7999999998,352621.89999999944,2024-07-30T16:31:42.278Z,352630.1,T4AF_MdYhH,incremental,anketa,6645cf40bc81b65c5faccf1d,participant,hcpib7dulz8mr0hb,,,,,Što ćemo uništit i saditi vrtove?,Uništit ćemo carstva i saditi vrtove.,csi,0,0,5,,,
,stimulus,canvas.Screen,2_11_1_0,,,,,,response,4302.899999999092,352622.10000000056,352613.4,352630.1,356932.99999999907,356933.49999999907,2024-07-30T16:31:46.590Z,356962.5,T4AF_MdYhH,incremental,anketa,6645cf40bc81b65c5faccf1d,participant,hcpib7dulz8mr0hb,,6,click @6,,Što ćemo uništit i saditi vrtove?,Uništit ćemo carstva i saditi vrtove.,csi,0,0,5,,,
,Timer frame,html.Frame,2_11_1,,,,,,,4303.500000000582,352621.89999999944,352613.4,352630.1,356933.60000000056,356933.7000000002,2024-07-30T16:31:46.590Z,356962.5,T4AF_MdYhH,incremental,anketa,6645cf40bc81b65c5faccf1d,participant,hcpib7dulz8mr0hb,,,,,Što ćemo uništit i saditi vrtove?,Uništit ćemo carstva i saditi vrtove.,csi,0,0,5,,,
,Spremanje,canvas.Screen,2_11_2,,,,,,skipped,,356933.7000000002,,,356933.60000000056,356933.7000000002,2024-07-30T16:31:46.590Z,356962.5,T4AF_MdYhH,incremental,anketa,6645cf40bc81b65c5faccf1d,participant,hcpib7dulz8mr0hb,,,,,Što ćemo uništit i saditi vrtove?,Uništit ćemo carstva i saditi vrtove.,csi,0,0,5,,,
,Question form,html.Form,2_11_3,,,,,,skipped,,356933.7999999998,,,356933.60000000056,356933.7999999998,2024-07-30T16:31:46.590Z,356962.5,T4AF_MdYhH,incremental,anketa,6645cf40bc81b65c5faccf1d,participant,hcpib7dulz8mr0hb,,,,,Što ćemo uništit i saditi vrtove?,Uništit ćemo carstva i saditi vrtove.,csi,0,0,5,,,
,Answer indication,canvas.Screen,2_11_4,,,,,,skipped,,356934.2000000002,,,356933.60000000056,356934.2000000002,2024-07-30T16:31:46.590Z,356962.5,T4AF_MdYhH,incremental,anketa,6645cf40bc81b65c5faccf1d,participant,hcpib7dulz8mr0hb,,,,,Što ćemo uništit i saditi vrtove?,Uništit ćemo carstva i saditi vrtove.,csi,0,0,5,,,
,inter-stimulus,canvas.Screen,2_11_5,,,,,,response,2595.2000000001863,356934.2000000002,356945.7,356962.5,359557.7000000002,359558.2999999998,2024-07-30T16:31:49.214Z,359561.7,T4AF_MdYhH,incremental,anketa,6645cf40bc81b65c5faccf1d,participant,hcpib7dulz8mr0hb,,,mousedown,,Što ćemo uništit i saditi vrtove?,Uništit ćemo carstva i saditi vrtove.,csi,0,0,5,,,
,Sequence,flow.Sequence,2_11,,,,,,completion,8793.900000000198,350757.89999999944,350747.318,350763.8,359557.7000000002,359558.39999999944,2024-07-30T16:31:49.215Z,359561.7,T4AF_MdYhH,incremental,anketa,6645cf40bc81b65c5faccf1d,participant,hcpib7dulz8mr0hb,,,,,Što ćemo uništit i saditi vrtove?,Uništit ćemo carstva i saditi vrtove.,csi,0,0,5,,,
,context,canvas.Screen,2_12_0_0,,,,,,response,2107.299999999057,359558.60000000056,359545.2,359561.7,361668.99999999907,361669.49999999907,2024-07-30T16:31:51.325Z,361694.8,T4AF_MdYhH,incremental,anketa,6645cf40bc81b65c5faccf1d,participant,hcpib7dulz8mr0hb,,,click,,Kakve izgrađene u viktorijansko doba te zgrade su izgrađene??,Te su zgrade izgrađene u viktorijansko doba.,nf,36,,43,,,
,Timer frame,html.Frame,2_12_0,,,,,,,2107.799999999057,359558.49999999907,359545.2,359561.7,361669.49999999907,361669.7000000002,2024-07-30T16:31:51.326Z,361694.8,T4AF_MdYhH,incremental,anketa,6645cf40bc81b65c5faccf1d,participant,hcpib7dulz8mr0hb,,,,,Kakve izgrađene u viktorijansko doba te zgrade su izgrađene??,Te su zgrade izgrađene u viktorijansko doba.,nf,36,,43,,,
,stimulus,canvas.Screen,2_12_1_0,,,,,,response,5350.499999999825,361669.7999999998,361678.8,361694.8,367045.2999999998,367045.7999999998,2024-07-30T16:31:56.702Z,367059.9,T4AF_MdYhH,incremental,anketa,6645cf40bc81b65c5faccf1d,participant,hcpib7dulz8mr0hb,,1,click @1,,Kakve izgrađene u viktorijansko doba te zgrade su izgrađene??,Te su zgrade izgrađene u viktorijansko doba.,nf,36,,43,,,
,Timer frame,html.Frame,2_12_1,,,,,,,5351.099999999453,361669.7000000002,361678.8,361694.8,367045.89999999944,367045.99999999907,2024-07-30T16:31:56.702Z,367059.9,T4AF_MdYhH,incremental,anketa,6645cf40bc81b65c5faccf1d,participant,hcpib7dulz8mr0hb,,,,,Kakve izgrađene u viktorijansko doba te zgrade su izgrađene??,Te su zgrade izgrađene u viktorijansko doba.,nf,36,,43,,,
,Spremanje,canvas.Screen,2_12_2,,,,,,skipped,,367046.10000000056,,,367045.89999999944,367046.10000000056,2024-07-30T16:31:56.702Z,367059.9,T4AF_MdYhH,incremental,anketa,6645cf40bc81b65c5faccf1d,participant,hcpib7dulz8mr0hb,,,,,Kakve izgrađene u viktorijansko doba te zgrade su izgrađene??,Te su zgrade izgrađene u viktorijansko doba.,nf,36,,43,,,
,Question form,html.Form,2_12_3,,,,,,skipped,,367046.10000000056,,,367045.89999999944,367046.10000000056,2024-07-30T16:31:56.702Z,367059.9,T4AF_MdYhH,incremental,anketa,6645cf40bc81b65c5faccf1d,participant,hcpib7dulz8mr0hb,,,,,Kakve izgrađene u viktorijansko doba te zgrade su izgrađene??,Te su zgrade izgrađene u viktorijansko doba.,nf,36,,43,,,
,Answer indication,canvas.Screen,2_12_4,,,,,,skipped,,367046.49999999907,,,367045.89999999944,367046.49999999907,2024-07-30T16:31:56.702Z,367059.9,T4AF_MdYhH,incremental,anketa,6645cf40bc81b65c5faccf1d,participant,hcpib7dulz8mr0hb,,,,,Kakve izgrađene u viktorijansko doba te zgrade su izgrađene??,Te su zgrade izgrađene u viktorijansko doba.,nf,36,,43,,,
,inter-stimulus,canvas.Screen,2_12_5,,,,,,response,1161.499999999418,367046.49999999907,367043.43,367059.9,368221.39999999944,368222.10000000056,2024-07-30T16:31:57.878Z,368226.2,T4AF_MdYhH,incremental,anketa,6645cf40bc81b65c5faccf1d,participant,hcpib7dulz8mr0hb,,,mousedown,,Kakve izgrađene u viktorijansko doba te zgrade su izgrađene??,Te su zgrade izgrađene u viktorijansko doba.,nf,36,,43,,,
,Sequence,flow.Sequence,2_12,,,,,,completion,8659.69999999943,359558.49999999907,359545.2,359561.7,368221.39999999944,368222.10000000056,2024-07-30T16:31:57.878Z,368226.2,T4AF_MdYhH,incremental,anketa,6645cf40bc81b65c5faccf1d,participant,hcpib7dulz8mr0hb,,,,,Kakve izgrađene u viktorijansko doba te zgrade su izgrađene??,Te su zgrade izgrađene u viktorijansko doba.,nf,36,,43,,,
,context,canvas.Screen,2_13_0_0,,,,,,response,4938.799999999057,368222.2999999998,368209.8,368226.2,373164.99999999907,373165.49999999907,2024-07-30T16:32:02.821Z,373175,T4AF_MdYhH,incremental,anketa,6645cf40bc81b65c5faccf1d,participant,hcpib7dulz8mr0hb,,,click,,Stare su samo Čehovljeve priče bile u ovoj knjižnici..,Samo su Čehovljeve priče bile stare u ovoj knjižnici..,di,35,35,33,,,
,Timer frame,html.Frame,2_13_0,,,,,,,4939.400000000547,368222.10000000056,368209.8,368226.2,373165.60000000056,373165.60000000056,2024-07-30T16:32:02.822Z,373175,T4AF_MdYhH,incremental,anketa,6645cf40bc81b65c5faccf1d,participant,hcpib7dulz8mr0hb,,,,,Stare su samo Čehovljeve priče bile u ovoj knjižnici..,Samo su Čehovljeve priče bile stare u ovoj knjižnici..,di,35,35,33,,,
,stimulus,canvas.Screen,2_13_1_0,,,,,,response,9326.100000000559,373165.7000000002,373158.6,373175,382501.10000000056,382501.60000000056,2024-07-30T16:32:12.158Z,382506.032,T4AF_MdYhH,incremental,anketa,6645cf40bc81b65c5faccf1d,participant,hcpib7dulz8mr0hb,,3,click @3,,Stare su samo Čehovljeve priče bile u ovoj knjižnici..,Samo su Čehovljeve priče bile stare u ovoj knjižnici..,di,35,35,33,,,
,Timer frame,html.Frame,2_13_1,,,,,,,9326.700000000186,373165.7000000002,373158.6,373175,382501.7000000002,382501.7000000002,2024-07-30T16:32:12.158Z,382506.032,T4AF_MdYhH,incremental,anketa,6645cf40bc81b65c5faccf1d,participant,hcpib7dulz8mr0hb,,,,,Stare su samo Čehovljeve priče bile u ovoj knjižnici..,Samo su Čehovljeve priče bile stare u ovoj knjižnici..,di,35,35,33,,,
,Spremanje,canvas.Screen,2_13_2,,,,,,skipped,,382501.7999999998,,,382501.7000000002,382501.7999999998,2024-07-30T16:32:12.158Z,382506.032,T4AF_MdYhH,incremental,anketa,6645cf40bc81b65c5faccf1d,participant,hcpib7dulz8mr0hb,,,,,Stare su samo Čehovljeve priče bile u ovoj knjižnici..,Samo su Čehovljeve priče bile stare u ovoj knjižnici..,di,35,35,33,,,
,Question form,html.Form,2_13_3,,,,,,skipped,,382501.7999999998,,,382501.7000000002,382501.7999999998,2024-07-30T16:32:12.158Z,382506.032,T4AF_MdYhH,incremental,anketa,6645cf40bc81b65c5faccf1d,participant,hcpib7dulz8mr0hb,,,,,Stare su samo Čehovljeve priče bile u ovoj knjižnici..,Samo su Čehovljeve priče bile stare u ovoj knjižnici..,di,35,35,33,,,
,Answer indication,canvas.Screen,2_13_4,,,,,,skipped,,382502.10000000056,,,382501.7000000002,382502.10000000056,2024-07-30T16:32:12.158Z,382506.032,T4AF_MdYhH,incremental,anketa,6645cf40bc81b65c5faccf1d,participant,hcpib7dulz8mr0hb,,,,,Stare su samo Čehovljeve priče bile u ovoj knjižnici..,Samo su Čehovljeve priče bile stare u ovoj knjižnici..,di,35,35,33,,,
,inter-stimulus,canvas.Screen,2_13_5,,,,,,response,4035.3679999994347,382502.2000000002,382506.032,382506.032,386541.39999999944,386541.99999999907,2024-07-30T16:32:16.198Z,386555.3,T4AF_MdYhH,incremental,anketa,6645cf40bc81b65c5faccf1d,participant,hcpib7dulz8mr0hb,,,mousedown,,Stare su samo Čehovljeve priče bile u ovoj knjižnici..,Samo su Čehovljeve priče bile stare u ovoj knjižnici..,di,35,35,33,,,
,Sequence,flow.Sequence,2_13,,,,,,completion,18315.19999999943,368222.10000000056,368209.8,368226.2,386541.39999999944,386542.10000000056,2024-07-30T16:32:16.198Z,386555.3,T4AF_MdYhH,incremental,anketa,6645cf40bc81b65c5faccf1d,participant,hcpib7dulz8mr0hb,,,,,Stare su samo Čehovljeve priče bile u ovoj knjižnici..,Samo su Čehovljeve priče bile stare u ovoj knjižnici..,di,35,35,33,,,
,context,canvas.Screen,2_14_0_0,,,,,,response,4001.8000000005704,386542.2000000002,386538.596,386555.3,390557.10000000056,390557.49999999907,2024-07-30T16:32:20.213Z,390587.4,T4AF_MdYhH,incremental,anketa,6645cf40bc81b65c5faccf1d,participant,hcpib7dulz8mr0hb,,,click,,Što si saznao tužnu vijest da je Petar izgubio u podzemnoj??,Saznao si tužnu vijest da je Petar izgubio putovnicu u podzemnoj..,cnp,38,34,9,,,
,Timer frame,html.Frame,2_14_0,,,,,,,4002.3000000005704,386542.2000000002,386538.596,386555.3,390557.60000000056,390557.60000000056,2024-07-30T16:32:20.213Z,390587.4,T4AF_MdYhH,incremental,anketa,6645cf40bc81b65c5faccf1d,participant,hcpib7dulz8mr0hb,,,,,Što si saznao tužnu vijest da je Petar izgubio u podzemnoj??,Saznao si tužnu vijest da je Petar izgubio putovnicu u podzemnoj..,cnp,38,34,9,,,
,stimulus,canvas.Screen,2_14_1_0,,,,,,response,10282.499999999418,390557.7000000002,390570.9,390587.4,400869.89999999944,400870.39999999944,2024-07-30T16:32:30.526Z,400901.8,T4AF_MdYhH,incremental,anketa,6645cf40bc81b65c5faccf1d,participant,hcpib7dulz8mr0hb,,2,click @2,,Što si saznao tužnu vijest da je Petar izgubio u podzemnoj??,Saznao si tužnu vijest da je Petar izgubio putovnicu u podzemnoj..,cnp,38,34,9,,,
,Timer frame,html.Frame,2_14_1,,,,,,,10283.099999999045,390557.7000000002,390570.9,390587.4,400870.49999999907,400870.49999999907,2024-07-30T16:32:30.526Z,400901.8,T4AF_MdYhH,incremental,anketa,6645cf40bc81b65c5faccf1d,participant,hcpib7dulz8mr0hb,,,,,Što si saznao tužnu vijest da je Petar izgubio u podzemnoj??,Saznao si tužnu vijest da je Petar izgubio putovnicu u podzemnoj..,cnp,38,34,9,,,
,Spremanje,canvas.Screen,2_14_2,,,,,,skipped,,400870.60000000056,,,400870.49999999907,400870.60000000056,2024-07-30T16:32:30.526Z,400901.8,T4AF_MdYhH,incremental,anketa,6645cf40bc81b65c5faccf1d,participant,hcpib7dulz8mr0hb,,,,,Što si saznao tužnu vijest da je Petar izgubio u podzemnoj??,Saznao si tužnu vijest da je Petar izgubio putovnicu u podzemnoj..,cnp,38,34,9,,,
,Question form,html.Form,2_14_3,,,,,,skipped,,400870.60000000056,,,400870.49999999907,400870.60000000056,2024-07-30T16:32:30.527Z,400901.8,T4AF_MdYhH,incremental,anketa,6645cf40bc81b65c5faccf1d,participant,hcpib7dulz8mr0hb,,,,,Što si saznao tužnu vijest da je Petar izgubio u podzemnoj??,Saznao si tužnu vijest da je Petar izgubio putovnicu u podzemnoj..,cnp,38,34,9,,,
,Answer indication,canvas.Screen,2_14_4,,,,,,skipped,,400870.89999999944,,,400870.49999999907,400870.99999999907,2024-07-30T16:32:30.527Z,400901.8,T4AF_MdYhH,incremental,anketa,6645cf40bc81b65c5faccf1d,participant,hcpib7dulz8mr0hb,,,,,Što si saznao tužnu vijest da je Petar izgubio u podzemnoj??,Saznao si tužnu vijest da je Petar izgubio putovnicu u podzemnoj..,cnp,38,34,9,,,
,inter-stimulus,canvas.Screen,2_14_5,,,,,,response,6575.400000000198,400870.99999999907,400885.18,400901.8,407477.2000000002,407477.7999999998,2024-07-30T16:32:37.134Z,407483.3,T4AF_MdYhH,incremental,anketa,6645cf40bc81b65c5faccf1d,participant,hcpib7dulz8mr0hb,,,mousedown,,Što si saznao tužnu vijest da je Petar izgubio u podzemnoj??,Saznao si tužnu vijest da je Petar izgubio putovnicu u podzemnoj..,cnp,38,34,9,,,
,Sequence,flow.Sequence,2_14,,,,,,completion,20921.900000000198,386542.10000000056,386538.596,386555.3,407477.2000000002,407477.89999999944,2024-07-30T16:32:37.134Z,407483.3,T4AF_MdYhH,incremental,anketa,6645cf40bc81b65c5faccf1d,participant,hcpib7dulz8mr0hb,,,,,Što si saznao tužnu vijest da je Petar izgubio u podzemnoj??,Saznao si tužnu vijest da je Petar izgubio putovnicu u podzemnoj..,cnp,38,34,9,,,
,context,canvas.Screen,2_15_0_0,,,,,,response,5833.900000000198,407477.99999999907,407467.952,407483.3,413317.2000000002,413317.7999999998,2024-07-30T16:32:42.974Z,413332.1,T4AF_MdYhH,incremental,anketa,6645cf40bc81b65c5faccf1d,participant,hcpib7dulz8mr0hb,,,click,,"Što žele da Ivan pripremi, a Nikola da posprema kuću??","Žele da Ivan pripremi juhu, a Nikola da posprema kuću..",csi,26,27,3,,,
,Timer frame,html.Frame,2_15_0,,,,,,,5834.599999999453,407477.89999999944,407467.952,407483.3,413317.89999999944,413317.99999999907,2024-07-30T16:32:42.974Z,413332.1,T4AF_MdYhH,incremental,anketa,6645cf40bc81b65c5faccf1d,participant,hcpib7dulz8mr0hb,,,,,"Što žele da Ivan pripremi, a Nikola da posprema kuću??","Žele da Ivan pripremi juhu, a Nikola da posprema kuću..",csi,26,27,3,,,
,stimulus,canvas.Screen,2_15_1_0,,,,,,response,5904.7999999994645,413318.10000000056,413315.2,413332.1,419236.89999999944,419237.49999999907,2024-07-30T16:32:48.893Z,419263.7,T4AF_MdYhH,incremental,anketa,6645cf40bc81b65c5faccf1d,participant,hcpib7dulz8mr0hb,,2,click @2,,"Što žele da Ivan pripremi, a Nikola da posprema kuću??","Žele da Ivan pripremi juhu, a Nikola da posprema kuću..",csi,26,27,3,,,
,Timer frame,html.Frame,2_15_1,,,,,,,5905.399999999092,413317.99999999907,413315.2,413332.1,419237.49999999907,419237.49999999907,2024-07-30T16:32:48.893Z,419263.7,T4AF_MdYhH,incremental,anketa,6645cf40bc81b65c5faccf1d,participant,hcpib7dulz8mr0hb,,,,,"Što žele da Ivan pripremi, a Nikola da posprema kuću??","Žele da Ivan pripremi juhu, a Nikola da posprema kuću..",csi,26,27,3,,,
,Spremanje,canvas.Screen,2_15_2,,,,,,skipped,,419237.60000000056,,,419237.49999999907,419237.7000000002,2024-07-30T16:32:48.894Z,419263.7,T4AF_MdYhH,incremental,anketa,6645cf40bc81b65c5faccf1d,participant,hcpib7dulz8mr0hb,,,,,"Što žele da Ivan pripremi, a Nikola da posprema kuću??","Žele da Ivan pripremi juhu, a Nikola da posprema kuću..",csi,26,27,3,,,
,Question form,html.Form,2_15_3,,,,,,skipped,,419237.7000000002,,,419237.49999999907,419237.7000000002,2024-07-30T16:32:48.894Z,419263.7,T4AF_MdYhH,incremental,anketa,6645cf40bc81b65c5faccf1d,participant,hcpib7dulz8mr0hb,,,,,"Što žele da Ivan pripremi, a Nikola da posprema kuću??","Žele da Ivan pripremi juhu, a Nikola da posprema kuću..",csi,26,27,3,,,
,Answer indication,canvas.Screen,2_15_4,,,,,,skipped,,419237.99999999907,,,419237.49999999907,419238.10000000056,2024-07-30T16:32:48.894Z,419263.7,T4AF_MdYhH,incremental,anketa,6645cf40bc81b65c5faccf1d,participant,hcpib7dulz8mr0hb,,,,,"Što žele da Ivan pripremi, a Nikola da posprema kuću??","Žele da Ivan pripremi juhu, a Nikola da posprema kuću..",csi,26,27,3,,,
,inter-stimulus,canvas.Screen,2_15_5,,,,,,response,597.4000000005472,419238.10000000056,419247.2,419263.7,419861.10000000056,419861.7999999998,2024-07-30T16:32:49.518Z,419863.5,T4AF_MdYhH,incremental,anketa,6645cf40bc81b65c5faccf1d,participant,hcpib7dulz8mr0hb,,,mousedown,,"Što žele da Ivan pripremi, a Nikola da posprema kuću??","Žele da Ivan pripremi juhu, a Nikola da posprema kuću..",csi,26,27,3,,,
,Sequence,flow.Sequence,2_15,,,,,,completion,12377.80000000057,407477.89999999944,407467.952,407483.3,419861.10000000056,419861.7999999998,2024-07-30T16:32:49.518Z,419863.5,T4AF_MdYhH,incremental,anketa,6645cf40bc81b65c5faccf1d,participant,hcpib7dulz8mr0hb,,,,,"Što žele da Ivan pripremi, a Nikola da posprema kuću??","Žele da Ivan pripremi juhu, a Nikola da posprema kuću..",csi,26,27,3,,,
,context,canvas.Screen,2_16_0_0,,,,,,response,2405.399999999441,419861.89999999944,419847.06,419863.5,422268.89999999944,422269.39999999944,2024-07-30T16:32:51.926Z,422296.5,T4AF_MdYhH,incremental,anketa,6645cf40bc81b65c5faccf1d,participant,hcpib7dulz8mr0hb,,,click,,Kakav sam vidio barku u oceanu?,Vidio sam bijelu barku u oceanu.,nf,,,41,,,2305
,Timer frame,html.Frame,2_16_0,,,,,,,2406.100000000559,419861.7999999998,419847.06,419863.5,422269.60000000056,422269.60000000056,2024-07-30T16:32:51.926Z,422296.5,T4AF_MdYhH,incremental,anketa,6645cf40bc81b65c5faccf1d,participant,hcpib7dulz8mr0hb,,,,,Kakav sam vidio barku u oceanu?,Vidio sam bijelu barku u oceanu.,nf,,,41,,,2305
,stimulus,canvas.Screen,2_16_1_0,,,,,,response,7100.399999999441,422269.7999999998,422279.9,422296.5,429396.89999999944,429397.39999999944,2024-07-30T16:32:59.054Z,429411.4,T4AF_MdYhH,incremental,anketa,6645cf40bc81b65c5faccf1d,participant,hcpib7dulz8mr0hb,,2,click @2,,Kakav sam vidio barku u oceanu?,Vidio sam bijelu barku u oceanu.,nf,,,41,,,2305
,Timer frame,html.Frame,2_16_1,,,,,,,7100.999999999069,422269.60000000056,422279.9,422296.5,429397.49999999907,429397.49999999907,2024-07-30T16:32:59.054Z,429411.4,T4AF_MdYhH,incremental,anketa,6645cf40bc81b65c5faccf1d,participant,hcpib7dulz8mr0hb,,,,,Kakav sam vidio barku u oceanu?,Vidio sam bijelu barku u oceanu.,nf,,,41,,,2305
,Spremanje,canvas.Screen,2_16_2,,,,,,skipped,,429397.49999999907,,,429397.49999999907,429397.49999999907,2024-07-30T16:32:59.054Z,429411.4,T4AF_MdYhH,incremental,anketa,6645cf40bc81b65c5faccf1d,participant,hcpib7dulz8mr0hb,,,,,Kakav sam vidio barku u oceanu?,Vidio sam bijelu barku u oceanu.,nf,,,41,,,2305
,Question form,html.Form,2_16_3,,,,,,skipped,,429397.49999999907,,,429397.49999999907,429397.60000000056,2024-07-30T16:32:59.054Z,429411.4,T4AF_MdYhH,incremental,anketa,6645cf40bc81b65c5faccf1d,participant,hcpib7dulz8mr0hb,,,,,Kakav sam vidio barku u oceanu?,Vidio sam bijelu barku u oceanu.,nf,,,41,,,2305
,Answer indication,canvas.Screen,2_16_4,,,,,,skipped,,429397.99999999907,,,429397.49999999907,429397.99999999907,2024-07-30T16:32:59.054Z,429411.4,T4AF_MdYhH,incremental,anketa,6645cf40bc81b65c5faccf1d,participant,hcpib7dulz8mr0hb,,,,,Kakav sam vidio barku u oceanu?,Vidio sam bijelu barku u oceanu.,nf,,,41,,,2305
,inter-stimulus,canvas.Screen,2_16_5,,,,,,response,489.5999999990454,429397.99999999907,429394.658,429411.4,429900.99999999907,429901.60000000056,2024-07-30T16:32:59.558Z,429911.2,T4AF_MdYhH,incremental,anketa,6645cf40bc81b65c5faccf1d,participant,hcpib7dulz8mr0hb,,,mousedown,,Kakav sam vidio barku u oceanu?,Vidio sam bijelu barku u oceanu.,nf,,,41,,,2305
,Sequence,flow.Sequence,2_16,,,,,,completion,10037.499999999069,419861.7999999998,419847.06,419863.5,429900.99999999907,429901.7000000002,2024-07-30T16:32:59.558Z,429911.2,T4AF_MdYhH,incremental,anketa,6645cf40bc81b65c5faccf1d,participant,hcpib7dulz8mr0hb,,,,,Kakav sam vidio barku u oceanu?,Vidio sam bijelu barku u oceanu.,nf,,,41,,,2305
,context,canvas.Screen,2_17_0_0,,,,,,response,4222.400000000547,429901.7999999998,429894.732,429911.2,434133.60000000056,434134.2000000002,2024-07-30T16:33:03.791Z,434143.6,T4AF_MdYhH,incremental,anketa,6645cf40bc81b65c5faccf1d,participant,hcpib7dulz8mr0hb,,,click,,Nešto se mu otac za punoljetnost poklonio.,Otac mu je za punoljetnost poklonio crveni Ferrari.,nf,,,42,,,
,Timer frame,html.Frame,2_17_0,,,,,,,4223.099999999802,429901.7999999998,429894.732,429911.2,434134.2999999998,434134.2999999998,2024-07-30T16:33:03.791Z,434143.6,T4AF_MdYhH,incremental,anketa,6645cf40bc81b65c5faccf1d,participant,hcpib7dulz8mr0hb,,,,,Nešto se mu otac za punoljetnost poklonio.,Otac mu je za punoljetnost poklonio crveni Ferrari.,nf,,,42,,,
,stimulus,canvas.Screen,2_17_1_0,,,,,,response,6573.60000000021,434134.39999999944,434126.828,434143.6,440717.2000000002,440717.7000000002,2024-07-30T16:33:10.374Z,440725.1,T4AF_MdYhH,incremental,anketa,6645cf40bc81b65c5faccf1d,participant,hcpib7dulz8mr0hb,,1,click @1,,Nešto se mu otac za punoljetnost poklonio.,Otac mu je za punoljetnost poklonio crveni Ferrari.,nf,,,42,,,
,Timer frame,html.Frame,2_17_1,,,,,,,6574.199999999837,434134.2999999998,434126.828,434143.6,440717.7999999998,440717.89999999944,2024-07-30T16:33:10.374Z,440725.1,T4AF_MdYhH,incremental,anketa,6645cf40bc81b65c5faccf1d,participant,hcpib7dulz8mr0hb,,,,,Nešto se mu otac za punoljetnost poklonio.,Otac mu je za punoljetnost poklonio crveni Ferrari.,nf,,,42,,,
,Spremanje,canvas.Screen,2_17_2,,,,,,skipped,,440717.89999999944,,,440717.7999999998,440717.89999999944,2024-07-30T16:33:10.374Z,440725.1,T4AF_MdYhH,incremental,anketa,6645cf40bc81b65c5faccf1d,participant,hcpib7dulz8mr0hb,,,,,Nešto se mu otac za punoljetnost poklonio.,Otac mu je za punoljetnost poklonio crveni Ferrari.,nf,,,42,,,
,Question form,html.Form,2_17_3,,,,,,skipped,,440717.89999999944,,,440717.7999999998,440717.89999999944,2024-07-30T16:33:10.374Z,440725.1,T4AF_MdYhH,incremental,anketa,6645cf40bc81b65c5faccf1d,participant,hcpib7dulz8mr0hb,,,,,Nešto se mu otac za punoljetnost poklonio.,Otac mu je za punoljetnost poklonio crveni Ferrari.,nf,,,42,,,
,Answer indication,canvas.Screen,2_17_4,,,,,,skipped,,440718.2999999998,,,440717.7999999998,440718.2999999998,2024-07-30T16:33:10.375Z,440725.1,T4AF_MdYhH,incremental,anketa,6645cf40bc81b65c5faccf1d,participant,hcpib7dulz8mr0hb,,,,,Nešto se mu otac za punoljetnost poklonio.,Otac mu je za punoljetnost poklonio crveni Ferrari.,nf,,,42,,,
,inter-stimulus,canvas.Screen,2_17_5,,,,,,response,3424.199999999837,440718.39999999944,440708.764,440725.1,444149.2999999998,444149.99999999907,2024-07-30T16:33:13.806Z,444158,T4AF_MdYhH,incremental,anketa,6645cf40bc81b65c5faccf1d,participant,hcpib7dulz8mr0hb,,,mousedown,,Nešto se mu otac za punoljetnost poklonio.,Otac mu je za punoljetnost poklonio crveni Ferrari.,nf,,,42,,,
,Sequence,flow.Sequence,2_17,,,,,,completion,14238.099999999802,429901.7999999998,429894.732,429911.2,444149.2999999998,444150.10000000056,2024-07-30T16:33:13.807Z,444158,T4AF_MdYhH,incremental,anketa,6645cf40bc81b65c5faccf1d,participant,hcpib7dulz8mr0hb,,,,,Nešto se mu otac za punoljetnost poklonio.,Otac mu je za punoljetnost poklonio crveni Ferrari.,nf,,,42,,,
,context,canvas.Screen,2_18_0_0,,,,,,response,5111.200000000186,444150.2999999998,444141.85,444158,449269.2000000002,449269.60000000056,2024-07-30T16:33:18.926Z,449289.8,T4AF_MdYhH,incremental,anketa,6645cf40bc81b65c5faccf1d,participant,hcpib7dulz8mr0hb,,,click,,"Tko se nadaš da će napraviti prezentaciju, a Đure nacrtati sliku??","Nadaš se da će Vesna napraviti prezentaciju, a Đure nacrtati sliku..",csi,42,44,2,,,
,Timer frame,html.Frame,2_18_0,,,,,,,5111.700000000186,444150.2000000002,444141.85,444158,449269.7000000002,449269.89999999944,2024-07-30T16:33:18.926Z,449289.8,T4AF_MdYhH,incremental,anketa,6645cf40bc81b65c5faccf1d,participant,hcpib7dulz8mr0hb,,,,,"Tko se nadaš da će napraviti prezentaciju, a Đure nacrtati sliku??","Nadaš se da će Vesna napraviti prezentaciju, a Đure nacrtati sliku..",csi,42,44,2,,,
,stimulus,canvas.Screen,2_18_1_0,,,,,,response,4507.30000000057,449269.99999999907,449273.1,449289.8,453797.10000000056,453797.7000000002,2024-07-30T16:33:23.454Z,453821.9,T4AF_MdYhH,incremental,anketa,6645cf40bc81b65c5faccf1d,participant,hcpib7dulz8mr0hb,,2,click @2,,"Tko se nadaš da će napraviti prezentaciju, a Đure nacrtati sliku??","Nadaš se da će Vesna napraviti prezentaciju, a Đure nacrtati sliku..",csi,42,44,2,,,
,Timer frame,html.Frame,2_18_1,,,,,,,4507.900000000198,449269.89999999944,449273.1,449289.8,453797.7000000002,453797.7999999998,2024-07-30T16:33:23.454Z,453821.9,T4AF_MdYhH,incremental,anketa,6645cf40bc81b65c5faccf1d,participant,hcpib7dulz8mr0hb,,,,,"Tko se nadaš da će napraviti prezentaciju, a Đure nacrtati sliku??","Nadaš se da će Vesna napraviti prezentaciju, a Đure nacrtati sliku..",csi,42,44,2,,,
,Spremanje,canvas.Screen,2_18_2,,,,,,skipped,,453797.7999999998,,,453797.7000000002,453797.7999999998,2024-07-30T16:33:23.454Z,453821.9,T4AF_MdYhH,incremental,anketa,6645cf40bc81b65c5faccf1d,participant,hcpib7dulz8mr0hb,,,,,"Tko se nadaš da će napraviti prezentaciju, a Đure nacrtati sliku??","Nadaš se da će Vesna napraviti prezentaciju, a Đure nacrtati sliku..",csi,42,44,2,,,
,Question form,html.Form,2_18_3,,,,,,skipped,,453797.89999999944,,,453797.7000000002,453797.89999999944,2024-07-30T16:33:23.454Z,453821.9,T4AF_MdYhH,incremental,anketa,6645cf40bc81b65c5faccf1d,participant,hcpib7dulz8mr0hb,,,,,"Tko se nadaš da će napraviti prezentaciju, a Đure nacrtati sliku??","Nadaš se da će Vesna napraviti prezentaciju, a Đure nacrtati sliku..",csi,42,44,2,,,
,Answer indication,canvas.Screen,2_18_4,,,,,,skipped,,453798.2000000002,,,453797.7000000002,453798.2000000002,2024-07-30T16:33:23.455Z,453821.9,T4AF_MdYhH,incremental,anketa,6645cf40bc81b65c5faccf1d,participant,hcpib7dulz8mr0hb,,,,,"Tko se nadaš da će napraviti prezentaciju, a Đure nacrtati sliku??","Nadaš se da će Vesna napraviti prezentaciju, a Đure nacrtati sliku..",csi,42,44,2,,,
,inter-stimulus,canvas.Screen,2_18_5,,,,,,response,519.5999999990454,453798.2999999998,453805.4,453821.9,454341.49999999907,454342.2000000002,2024-07-30T16:33:23.999Z,454372,T4AF_MdYhH,incremental,anketa,6645cf40bc81b65c5faccf1d,participant,hcpib7dulz8mr0hb,,,mousedown,,"Tko se nadaš da će napraviti prezentaciju, a Đure nacrtati sliku??","Nadaš se da će Vesna napraviti prezentaciju, a Đure nacrtati sliku..",csi,42,44,2,,,
,Sequence,flow.Sequence,2_18,,,,,,completion,10183.499999999069,444150.2000000002,444141.85,444158,454341.49999999907,454342.2999999998,2024-07-30T16:33:23.999Z,454372,T4AF_MdYhH,incremental,anketa,6645cf40bc81b65c5faccf1d,participant,hcpib7dulz8mr0hb,,,,,"Tko se nadaš da će napraviti prezentaciju, a Đure nacrtati sliku??","Nadaš se da će Vesna napraviti prezentaciju, a Đure nacrtati sliku..",csi,42,44,2,,,
,context,canvas.Screen,2_19_0_0,,,,,,timeout,10997.099999999977,454342.39999999944,454355.4,454372,465352.6,465353.99999999907,2024-07-30T16:33:35.010Z,465369.1,T4AF_MdYhH,incremental,anketa,6645cf40bc81b65c5faccf1d,participant,hcpib7dulz8mr0hb,,,,,Petar i Mara su jučer otišli u kino pogledati dobru komediju..,Jučer su Petar i Mara otišli u kino pogledati dobru komediju..,gf,35,35,46,,,
,Timer frame,html.Frame,2_19_0,,,,,,,10981.999999999069,454342.2999999998,454355.4,454372,465353.99999999907,465354.10000000056,2024-07-30T16:33:35.011Z,465385.8,T4AF_MdYhH,incremental,anketa,6645cf40bc81b65c5faccf1d,participant,hcpib7dulz8mr0hb,,,,,Petar i Mara su jučer otišli u kino pogledati dobru komediju..,Jučer su Petar i Mara otišli u kino pogledati dobru komediju..,gf,35,35,46,,,
,stimulus,canvas.Screen,2_19_1_0,,,,,,response,8347.30000000057,465354.2000000002,465369.1,465385.8,473733.10000000056,473733.7000000002,2024-07-30T16:33:43.390Z,473750.3,T4AF_MdYhH,incremental,anketa,6645cf40bc81b65c5faccf1d,participant,hcpib7dulz8mr0hb,,6,click @6,,Petar i Mara su jučer otišli u kino pogledati dobru komediju..,Jučer su Petar i Mara otišli u kino pogledati dobru komediju..,gf,35,35,46,,,
,Timer frame,html.Frame,2_19_1,,,,,,,8348.099999999453,465354.10000000056,465369.1,465385.8,473733.89999999944,473733.89999999944,2024-07-30T16:33:43.390Z,473750.3,T4AF_MdYhH,incremental,anketa,6645cf40bc81b65c5faccf1d,participant,hcpib7dulz8mr0hb,,,,,Petar i Mara su jučer otišli u kino pogledati dobru komediju..,Jučer su Petar i Mara otišli u kino pogledati dobru komediju..,gf,35,35,46,,,
,Spremanje,canvas.Screen,2_19_2,,,,,,skipped,,473733.89999999944,,,473733.89999999944,473733.99999999907,2024-07-30T16:33:43.390Z,473750.3,T4AF_MdYhH,incremental,anketa,6645cf40bc81b65c5faccf1d,participant,hcpib7dulz8mr0hb,,,,,Petar i Mara su jučer otišli u kino pogledati dobru komediju..,Jučer su Petar i Mara otišli u kino pogledati dobru komediju..,gf,35,35,46,,,
,Question form,html.Form,2_19_3,,,,,,skipped,,473734.10000000056,,,473733.89999999944,473734.10000000056,2024-07-30T16:33:43.390Z,473750.3,T4AF_MdYhH,incremental,anketa,6645cf40bc81b65c5faccf1d,participant,hcpib7dulz8mr0hb,,,,,Petar i Mara su jučer otišli u kino pogledati dobru komediju..,Jučer su Petar i Mara otišli u kino pogledati dobru komediju..,gf,35,35,46,,,
,Answer indication,canvas.Screen,2_19_4,,,,,,skipped,,473734.39999999944,,,473733.89999999944,473734.49999999907,2024-07-30T16:33:43.391Z,473750.3,T4AF_MdYhH,incremental,anketa,6645cf40bc81b65c5faccf1d,participant,hcpib7dulz8mr0hb,,,,,Petar i Mara su jučer otišli u kino pogledati dobru komediju..,Jučer su Petar i Mara otišli u kino pogledati dobru komediju..,gf,35,35,46,,,
,inter-stimulus,canvas.Screen,2_19_5,,,,,,response,726.9999999998254,473734.49999999907,473733.9,473750.3,474477.2999999998,474477.89999999944,2024-07-30T16:33:44.134Z,474483.5,T4AF_MdYhH,incremental,anketa,6645cf40bc81b65c5faccf1d,participant,hcpib7dulz8mr0hb,,,mousedown,,Petar i Mara su jučer otišli u kino pogledati dobru komediju..,Jučer su Petar i Mara otišli u kino pogledati dobru komediju..,gf,35,35,46,,,
,Sequence,flow.Sequence,2_19,,,,,,completion,20105.299999999814,454342.2999999998,454355.4,454372,474477.2999999998,474477.89999999944,2024-07-30T16:33:44.134Z,474483.5,T4AF_MdYhH,incremental,anketa,6645cf40bc81b65c5faccf1d,participant,hcpib7dulz8mr0hb,,,,,Petar i Mara su jučer otišli u kino pogledati dobru komediju..,Jučer su Petar i Mara otišli u kino pogledati dobru komediju..,gf,35,35,46,,,
,context,canvas.Screen,2_20_0_0,,,,,,response,2169.600000000559,474478.10000000056,474467.192,474483.5,476653.10000000056,476653.60000000056,2024-07-30T16:33:46.310Z,476666.5,T4AF_MdYhH,incremental,anketa,6645cf40bc81b65c5faccf1d,participant,hcpib7dulz8mr0hb,,,click,,Kolike su trenutno plaće u hrvatskom sportu?,Kolike plaće su trenutno u hrvatskom sportu?,lbc,,,35,,,
,Timer frame,html.Frame,2_20_0,,,,,,,2170.2000000001863,474478.10000000056,474467.192,474483.5,476653.7000000002,476653.7000000002,2024-07-30T16:33:46.310Z,476666.5,T4AF_MdYhH,incremental,anketa,6645cf40bc81b65c5faccf1d,participant,hcpib7dulz8mr0hb,,,,,Kolike su trenutno plaće u hrvatskom sportu?,Kolike plaće su trenutno u hrvatskom sportu?,lbc,,,35,,,
,stimulus,canvas.Screen,2_20_1_0,,,,,,response,7699.299999999814,476653.89999999944,476650,476666.5,484365.7999999998,484366.2999999998,2024-07-30T16:33:54.023Z,484397.9,T4AF_MdYhH,incremental,anketa,6645cf40bc81b65c5faccf1d,participant,hcpib7dulz8mr0hb,,7,click @7,,Kolike su trenutno plaće u hrvatskom sportu?,Kolike plaće su trenutno u hrvatskom sportu?,lbc,,,35,,,
,Timer frame,html.Frame,2_20_1,,,,,,,7699.999999999069,476653.7999999998,476650,476666.5,484366.49999999907,484366.49999999907,2024-07-30T16:33:54.023Z,484397.9,T4AF_MdYhH,incremental,anketa,6645cf40bc81b65c5faccf1d,participant,hcpib7dulz8mr0hb,,,,,Kolike su trenutno plaće u hrvatskom sportu?,Kolike plaće su trenutno u hrvatskom sportu?,lbc,,,35,,,
,Spremanje,canvas.Screen,2_20_2,,,,,,skipped,,484366.49999999907,,,484366.49999999907,484366.60000000056,2024-07-30T16:33:54.023Z,484397.9,T4AF_MdYhH,incremental,anketa,6645cf40bc81b65c5faccf1d,participant,hcpib7dulz8mr0hb,,,,,Kolike su trenutno plaće u hrvatskom sportu?,Kolike plaće su trenutno u hrvatskom sportu?,lbc,,,35,,,
,Question form,html.Form,2_20_3,,,,,,skipped,,484366.60000000056,,,484366.49999999907,484366.60000000056,2024-07-30T16:33:54.023Z,484397.9,T4AF_MdYhH,incremental,anketa,6645cf40bc81b65c5faccf1d,participant,hcpib7dulz8mr0hb,,,,,Kolike su trenutno plaće u hrvatskom sportu?,Kolike plaće su trenutno u hrvatskom sportu?,lbc,,,35,,,
,Answer indication,canvas.Screen,2_20_4,,,,,,skipped,,484366.89999999944,,,484366.49999999907,484366.99999999907,2024-07-30T16:33:54.024Z,484397.9,T4AF_MdYhH,incremental,anketa,6645cf40bc81b65c5faccf1d,participant,hcpib7dulz8mr0hb,,,,,Kolike su trenutno plaće u hrvatskom sportu?,Kolike plaće su trenutno u hrvatskom sportu?,lbc,,,35,,,
,inter-stimulus,canvas.Screen,2_20_5,,,,,,response,1695.2000000005355,484366.99999999907,484381.1,484397.9,486093.10000000056,486093.7999999998,2024-07-30T16:33:55.751Z,486097.4,T4AF_MdYhH,incremental,anketa,6645cf40bc81b65c5faccf1d,participant,hcpib7dulz8mr0hb,,,mousedown,,Kolike su trenutno plaće u hrvatskom sportu?,Kolike plaće su trenutno u hrvatskom sportu?,lbc,,,35,,,
,Sequence,flow.Sequence,2_20,,,,,,completion,11609.600000000559,474477.99999999907,474467.192,474483.5,486093.10000000056,486093.89999999944,2024-07-30T16:33:55.751Z,486097.4,T4AF_MdYhH,incremental,anketa,6645cf40bc81b65c5faccf1d,participant,hcpib7dulz8mr0hb,,,,,Kolike su trenutno plaće u hrvatskom sportu?,Kolike plaće su trenutno u hrvatskom sportu?,lbc,,,35,,,
,context,canvas.Screen,2_21_0_0,,,,,,timeout,10997.199999999953,486093.99999999907,486080.814,486097.4,497077.9,497080.10000000056,2024-07-30T16:34:06.737Z,497094.6,T4AF_MdYhH,incremental,anketa,6645cf40bc81b65c5faccf1d,participant,hcpib7dulz8mr0hb,,,,,Vidimo plažu od koje smo bili daleko.,Vidimo plažu od koje smo bili daleko.,ai,,,25,,,
,Timer frame,html.Frame,2_21_0,,,,,,,10982.800000000163,486093.99999999907,486080.814,486097.4,497080.2000000002,497080.2000000002,2024-07-30T16:34:06.737Z,497111.5,T4AF_MdYhH,incremental,anketa,6645cf40bc81b65c5faccf1d,participant,hcpib7dulz8mr0hb,,,,,Vidimo plažu od koje smo bili daleko.,Vidimo plažu od koje smo bili daleko.,ai,,,25,,,
,stimulus,canvas.Screen,2_21_1_0,,,,,,timeout,10997.200000000012,497080.2000000002,497094.6,497111.5,508092.1,508092.49999999907,2024-07-30T16:34:17.749Z,508108.7,T4AF_MdYhH,incremental,anketa,6645cf40bc81b65c5faccf1d,participant,hcpib7dulz8mr0hb,,,,,Vidimo plažu od koje smo bili daleko.,Vidimo plažu od koje smo bili daleko.,ai,,,25,,,
,Timer frame,html.Frame,2_21_1,,,,,,,10980.999999999069,497080.2000000002,497094.6,497111.5,508092.49999999907,508092.60000000056,2024-07-30T16:34:17.749Z,508125.2,T4AF_MdYhH,incremental,anketa,6645cf40bc81b65c5faccf1d,participant,hcpib7dulz8mr0hb,,,,,Vidimo plažu od koje smo bili daleko.,Vidimo plažu od koje smo bili daleko.,ai,,,25,,,
,Spremanje,canvas.Screen,2_21_2,,,,,,skipped,,508092.60000000056,,,508092.49999999907,508092.60000000056,2024-07-30T16:34:17.750Z,508125.2,T4AF_MdYhH,incremental,anketa,6645cf40bc81b65c5faccf1d,participant,hcpib7dulz8mr0hb,,,,,Vidimo plažu od koje smo bili daleko.,Vidimo plažu od koje smo bili daleko.,ai,,,25,,,
,Question form,html.Form,2_21_3,,,,,,skipped,,508092.60000000056,,,508092.49999999907,508092.7000000002,2024-07-30T16:34:17.750Z,508125.2,T4AF_MdYhH,incremental,anketa,6645cf40bc81b65c5faccf1d,participant,hcpib7dulz8mr0hb,,,,,Vidimo plažu od koje smo bili daleko.,Vidimo plažu od koje smo bili daleko.,ai,,,25,,,
,Answer indication,canvas.Screen,2_21_4,,,,,,skipped,,508093.10000000056,,,508092.49999999907,508093.10000000056,2024-07-30T16:34:17.750Z,508125.2,T4AF_MdYhH,incremental,anketa,6645cf40bc81b65c5faccf1d,participant,hcpib7dulz8mr0hb,,,,,Vidimo plažu od koje smo bili daleko.,Vidimo plažu od koje smo bili daleko.,ai,,,25,,,
,inter-stimulus,canvas.Screen,2_21_5,,,,,,response,240.0999999998021,508093.10000000056,508108.7,508125.2,508365.2999999998,508365.99999999907,2024-07-30T16:34:18.023Z,508375.4,T4AF_MdYhH,incremental,anketa,6645cf40bc81b65c5faccf1d,participant,hcpib7dulz8mr0hb,,,mousedown,,Vidimo plažu od koje smo bili daleko.,Vidimo plažu od koje smo bili daleko.,ai,,,25,,,
,Sequence,flow.Sequence,2_21,,,,,,completion,22267.89999999979,486093.99999999907,486080.814,486097.4,508365.2999999998,508365.99999999907,2024-07-30T16:34:18.023Z,508375.4,T4AF_MdYhH,incremental,anketa,6645cf40bc81b65c5faccf1d,participant,hcpib7dulz8mr0hb,,,,,Vidimo plažu od koje smo bili daleko.,Vidimo plažu od koje smo bili daleko.,ai,,,25,,,
,context,canvas.Screen,2_22_0_0,,,,,,response,2725.499999999418,508366.2000000002,508358.6,508375.4,511100.89999999944,511101.2999999998,2024-07-30T16:34:20.758Z,511107.8,T4AF_MdYhH,incremental,anketa,6645cf40bc81b65c5faccf1d,participant,hcpib7dulz8mr0hb,,,click,,Za kim su banditi imali pitanja?,Ti banditi su imali pitanja za mene.,nf,,,40,,,
,Timer frame,html.Frame,2_22_0,,,,,,,2725.8999999997905,508366.10000000056,508358.6,508375.4,511101.2999999998,511101.39999999944,2024-07-30T16:34:20.758Z,511107.8,T4AF_MdYhH,incremental,anketa,6645cf40bc81b65c5faccf1d,participant,hcpib7dulz8mr0hb,,,,,Za kim su banditi imali pitanja?,Ti banditi su imali pitanja za mene.,nf,,,40,,,
,stimulus,canvas.Screen,2_22_1_0,,,,,,response,6889.400000000198,511101.49999999907,511091.4,511107.8,517997.2000000002,517997.60000000056,2024-07-30T16:34:27.655Z,518006.2,T4AF_MdYhH,incremental,anketa,6645cf40bc81b65c5faccf1d,participant,hcpib7dulz8mr0hb,,1,click @1,,Za kim su banditi imali pitanja?,Ti banditi su imali pitanja za mene.,nf,,,40,,,
,Timer frame,html.Frame,2_22_1,,,,,,,6889.900000000198,511101.39999999944,511091.4,511107.8,517997.7000000002,517997.7999999998,2024-07-30T16:34:27.655Z,518006.2,T4AF_MdYhH,incremental,anketa,6645cf40bc81b65c5faccf1d,participant,hcpib7dulz8mr0hb,,,,,Za kim su banditi imali pitanja?,Ti banditi su imali pitanja za mene.,nf,,,40,,,
,Spremanje,canvas.Screen,2_22_2,,,,,,skipped,,517997.7999999998,,,517997.7000000002,517997.89999999944,2024-07-30T16:34:27.655Z,518006.2,T4AF_MdYhH,incremental,anketa,6645cf40bc81b65c5faccf1d,participant,hcpib7dulz8mr0hb,,,,,Za kim su banditi imali pitanja?,Ti banditi su imali pitanja za mene.,nf,,,40,,,
,Question form,html.Form,2_22_3,,,,,,skipped,,517997.89999999944,,,517997.7000000002,517997.89999999944,2024-07-30T16:34:27.655Z,518006.2,T4AF_MdYhH,incremental,anketa,6645cf40bc81b65c5faccf1d,participant,hcpib7dulz8mr0hb,,,,,Za kim su banditi imali pitanja?,Ti banditi su imali pitanja za mene.,nf,,,40,,,
,Answer indication,canvas.Screen,2_22_4,,,,,,skipped,,517998.2000000002,,,517997.7000000002,517998.2999999998,2024-07-30T16:34:27.655Z,518006.2,T4AF_MdYhH,incremental,anketa,6645cf40bc81b65c5faccf1d,participant,hcpib7dulz8mr0hb,,,,,Za kim su banditi imali pitanja?,Ti banditi su imali pitanja za mene.,nf,,,40,,,
,inter-stimulus,canvas.Screen,2_22_5,,,,,,response,527.0999999998021,517998.2999999998,517989.9,518006.2,518533.2999999998,518533.89999999944,2024-07-30T16:34:28.191Z,518539.3,T4AF_MdYhH,incremental,anketa,6645cf40bc81b65c5faccf1d,participant,hcpib7dulz8mr0hb,,,mousedown,,Za kim su banditi imali pitanja?,Ti banditi su imali pitanja za mene.,nf,,,40,,,
,Sequence,flow.Sequence,2_22,,,,,,completion,10157.89999999979,508366.10000000056,508358.6,508375.4,518533.2999999998,518533.99999999907,2024-07-30T16:34:28.191Z,518539.3,T4AF_MdYhH,incremental,anketa,6645cf40bc81b65c5faccf1d,participant,hcpib7dulz8mr0hb,,,,,Za kim su banditi imali pitanja?,Ti banditi su imali pitanja za mene.,nf,,,40,,,
,context,canvas.Screen,2_23_0_0,,,,,,response,1777.5999999994528,518534.10000000056,518523.032,518539.3,520316.89999999944,520317.2999999998,2024-07-30T16:34:29.974Z,520322.3,T4AF_MdYhH,incremental,anketa,6645cf40bc81b65c5faccf1d,participant,hcpib7dulz8mr0hb,,,click,,Tko se zaljubio u djevojku kad je bio dijete?,"Kad smo bili djeca, moj prijatelj i ja smo se zaljubili u istu djevojku..",gf,,33,52,,,
,Timer frame,html.Frame,2_23_0,,,,,,,1778.0999999994528,518534.10000000056,518523.032,518539.3,520317.39999999944,520317.39999999944,2024-07-30T16:34:29.974Z,520322.3,T4AF_MdYhH,incremental,anketa,6645cf40bc81b65c5faccf1d,participant,hcpib7dulz8mr0hb,,,,,Tko se zaljubio u djevojku kad je bio dijete?,"Kad smo bili djeca, moj prijatelj i ja smo se zaljubili u istu djevojku..",gf,,33,52,,,
,stimulus,canvas.Screen,2_23_1_0,,,,,,response,2762.599999999453,520317.60000000056,520305.73,520322.3,523084.89999999944,523085.39999999944,2024-07-30T16:34:32.742Z,523088.2,T4AF_MdYhH,incremental,anketa,6645cf40bc81b65c5faccf1d,participant,hcpib7dulz8mr0hb,,7,click @7,,Tko se zaljubio u djevojku kad je bio dijete?,"Kad smo bili djeca, moj prijatelj i ja smo se zaljubili u istu djevojku..",gf,,33,52,,,
,Timer frame,html.Frame,2_23_1,,,,,,,2763.099999999453,520317.39999999944,520305.73,520322.3,523085.39999999944,523085.39999999944,2024-07-30T16:34:32.742Z,523088.2,T4AF_MdYhH,incremental,anketa,6645cf40bc81b65c5faccf1d,participant,hcpib7dulz8mr0hb,,,,,Tko se zaljubio u djevojku kad je bio dijete?,"Kad smo bili djeca, moj prijatelj i ja smo se zaljubili u istu djevojku..",gf,,33,52,,,
,Spremanje,canvas.Screen,2_23_2,,,,,,skipped,,523085.49999999907,,,523085.39999999944,523085.49999999907,2024-07-30T16:34:32.742Z,523088.2,T4AF_MdYhH,incremental,anketa,6645cf40bc81b65c5faccf1d,participant,hcpib7dulz8mr0hb,,,,,Tko se zaljubio u djevojku kad je bio dijete?,"Kad smo bili djeca, moj prijatelj i ja smo se zaljubili u istu djevojku..",gf,,33,52,,,
,Question form,html.Form,2_23_3,,,,,,skipped,,523085.60000000056,,,523085.39999999944,523085.60000000056,2024-07-30T16:34:32.743Z,523088.2,T4AF_MdYhH,incremental,anketa,6645cf40bc81b65c5faccf1d,participant,hcpib7dulz8mr0hb,,,,,Tko se zaljubio u djevojku kad je bio dijete?,"Kad smo bili djeca, moj prijatelj i ja smo se zaljubili u istu djevojku..",gf,,33,52,,,
,Answer indication,canvas.Screen,2_23_4,,,,,,skipped,,523085.99999999907,,,523085.39999999944,523085.99999999907,2024-07-30T16:34:32.743Z,523088.2,T4AF_MdYhH,incremental,anketa,6645cf40bc81b65c5faccf1d,participant,hcpib7dulz8mr0hb,,,,,Tko se zaljubio u djevojku kad je bio dijete?,"Kad smo bili djeca, moj prijatelj i ja smo se zaljubili u istu djevojku..",gf,,33,52,,,
,inter-stimulus,canvas.Screen,2_23_5,,,,,,response,1652.799999999057,523086.10000000056,523071.832,523088.2,524740.9999999991,524741.6000000006,2024-07-30T16:34:34.399Z,524754.6,T4AF_MdYhH,incremental,anketa,6645cf40bc81b65c5faccf1d,participant,hcpib7dulz8mr0hb,,,mousedown,,Tko se zaljubio u djevojku kad je bio dijete?,"Kad smo bili djeca, moj prijatelj i ja smo se zaljubili u istu djevojku..",gf,,33,52,,,
,Sequence,flow.Sequence,2_23,,,,,,completion,6201.69999999908,518534.10000000056,518523.032,518539.3,524740.9999999991,524741.7000000002,2024-07-30T16:34:34.399Z,524754.6,T4AF_MdYhH,incremental,anketa,6645cf40bc81b65c5faccf1d,participant,hcpib7dulz8mr0hb,,,,,Tko se zaljubio u djevojku kad je bio dijete?,"Kad smo bili djeca, moj prijatelj i ja smo se zaljubili u istu djevojku..",gf,,33,52,,,
,context,canvas.Screen,2_24_0_0,,,,,,timeout,10997.70000000007,524741.8999999994,524738.352,524754.6,535735.3,535735.6000000006,2024-07-30T16:34:45.393Z,535752.3,T4AF_MdYhH,incremental,anketa,6645cf40bc81b65c5faccf1d,participant,hcpib7dulz8mr0hb,,,,,Kakva je kraj mene biciklom prošla djevojka?,Kraj mene je biciklom prošla vrlo lijepa djevojka.,ai,,,27,,,
,Timer frame,html.Frame,2_24_0,,,,,,,10981.10000000021,524741.7000000002,524738.352,524754.6,535735.7000000002,535735.7000000002,2024-07-30T16:34:45.393Z,535768.4,T4AF_MdYhH,incremental,anketa,6645cf40bc81b65c5faccf1d,participant,hcpib7dulz8mr0hb,,,,,Kakva je kraj mene biciklom prošla djevojka?,Kraj mene je biciklom prošla vrlo lijepa djevojka.,ai,,,27,,,
,stimulus,canvas.Screen,2_24_1_0,,,,,,response,10188.39999999979,535735.7999999998,535752.3,535768.4,545956.7999999998,545957.2000000002,2024-07-30T16:34:55.613Z,545982.6,T4AF_MdYhH,incremental,anketa,6645cf40bc81b65c5faccf1d,participant,hcpib7dulz8mr0hb,,5,click @5,,Kakva je kraj mene biciklom prošla djevojka?,Kraj mene je biciklom prošla vrlo lijepa djevojka.,ai,,,27,,,
,Timer frame,html.Frame,2_24_1,,,,,,,10188.89999999979,535735.7999999998,535752.3,535768.4,545957.2999999998,545957.2999999998,2024-07-30T16:34:55.614Z,545982.6,T4AF_MdYhH,incremental,anketa,6645cf40bc81b65c5faccf1d,participant,hcpib7dulz8mr0hb,,,,,Kakva je kraj mene biciklom prošla djevojka?,Kraj mene je biciklom prošla vrlo lijepa djevojka.,ai,,,27,,,
,Spremanje,canvas.Screen,2_24_2,,,,,,skipped,,545957.3999999994,,,545957.2999999998,545957.3999999994,2024-07-30T16:34:55.614Z,545982.6,T4AF_MdYhH,incremental,anketa,6645cf40bc81b65c5faccf1d,participant,hcpib7dulz8mr0hb,,,,,Kakva je kraj mene biciklom prošla djevojka?,Kraj mene je biciklom prošla vrlo lijepa djevojka.,ai,,,27,,,
,Question form,html.Form,2_24_3,,,,,,skipped,,545957.3999999994,,,545957.2999999998,545957.4999999991,2024-07-30T16:34:55.614Z,545982.6,T4AF_MdYhH,incremental,anketa,6645cf40bc81b65c5faccf1d,participant,hcpib7dulz8mr0hb,,,,,Kakva je kraj mene biciklom prošla djevojka?,Kraj mene je biciklom prošla vrlo lijepa djevojka.,ai,,,27,,,
,Answer indication,canvas.Screen,2_24_4,,,,,,skipped,,545957.8999999994,,,545957.2999999998,545957.8999999994,2024-07-30T16:34:55.614Z,545982.6,T4AF_MdYhH,incremental,anketa,6645cf40bc81b65c5faccf1d,participant,hcpib7dulz8mr0hb,,,,,Kakva je kraj mene biciklom prošla djevojka?,Kraj mene je biciklom prošla vrlo lijepa djevojka.,ai,,,27,,,
,inter-stimulus,canvas.Screen,2_24_5,,,,,,response,702.6000000002095,545957.8999999994,545966,545982.6,546685.2000000002,546685.7999999998,2024-07-30T16:34:56.342Z,546699.4,T4AF_MdYhH,incremental,anketa,6645cf40bc81b65c5faccf1d,participant,hcpib7dulz8mr0hb,,,mousedown,,Kakva je kraj mene biciklom prošla djevojka?,Kraj mene je biciklom prošla vrlo lijepa djevojka.,ai,,,27,,,
,Sequence,flow.Sequence,2_24,,,,,,completion,21930.60000000021,524741.7000000002,524738.352,524754.6,546685.2000000002,546685.8999999994,2024-07-30T16:34:56.342Z,546699.4,T4AF_MdYhH,incremental,anketa,6645cf40bc81b65c5faccf1d,participant,hcpib7dulz8mr0hb,,,,,Kakva je kraj mene biciklom prošla djevojka?,Kraj mene je biciklom prošla vrlo lijepa djevojka.,ai,,,27,,,
,context,canvas.Screen,2_25_0_0,,,,,,response,857.7000000005355,546686.1000000006,546682.596,546699.4,547557.1000000006,547557.6000000006,2024-07-30T16:34:57.214Z,547582.3,T4AF_MdYhH,incremental,anketa,6645cf40bc81b65c5faccf1d,participant,hcpib7dulz8mr0hb,,,click,,"Kamo je djevojka razmišljala o slobode, idući?","Djevojka je razmišljala o slobode, idući do mora.",ai,,,23,,,
,Timer frame,html.Frame,2_25_0,,,,,,,858.2000000005355,546685.8999999994,546682.596,546699.4,547557.6000000006,547557.7999999998,2024-07-30T16:34:57.214Z,547582.3,T4AF_MdYhH,incremental,anketa,6645cf40bc81b65c5faccf1d,participant,hcpib7dulz8mr0hb,,,,,"Kamo je djevojka razmišljala o slobode, idući?","Djevojka je razmišljala o slobode, idući do mora.",ai,,,23,,,
,stimulus,canvas.Screen,2_25_1_0,,,,,,response,9415.40000000014,547557.8999999994,547565.764,547582.3,556997.7000000002,556998.2999999998,2024-07-30T16:35:06.654Z,557029.9,T4AF_MdYhH,incremental,anketa,6645cf40bc81b65c5faccf1d,participant,hcpib7dulz8mr0hb,,1,click @1,,"Kamo je djevojka razmišljala o slobode, idući?","Djevojka je razmišljala o slobode, idući do mora.",ai,,,23,,,
,Timer frame,html.Frame,2_25_1,,,,,,,9415.999999999767,547557.7999999998,547565.764,547582.3,556998.2999999998,556998.2999999998,2024-07-30T16:35:06.655Z,557029.9,T4AF_MdYhH,incremental,anketa,6645cf40bc81b65c5faccf1d,participant,hcpib7dulz8mr0hb,,,,,"Kamo je djevojka razmišljala o slobode, idući?","Djevojka je razmišljala o slobode, idući do mora.",ai,,,23,,,
,Spremanje,canvas.Screen,2_25_2,,,,,,skipped,,556998.3999999994,,,556998.2999999998,556998.3999999994,2024-07-30T16:35:06.655Z,557029.9,T4AF_MdYhH,incremental,anketa,6645cf40bc81b65c5faccf1d,participant,hcpib7dulz8mr0hb,,,,,"Kamo je djevojka razmišljala o slobode, idući?","Djevojka je razmišljala o slobode, idući do mora.",ai,,,23,,,
,Question form,html.Form,2_25_3,,,,,,skipped,,556998.4999999991,,,556998.2999999998,556998.4999999991,2024-07-30T16:35:06.655Z,557029.9,T4AF_MdYhH,incremental,anketa,6645cf40bc81b65c5faccf1d,participant,hcpib7dulz8mr0hb,,,,,"Kamo je djevojka razmišljala o slobode, idući?","Djevojka je razmišljala o slobode, idući do mora.",ai,,,23,,,
,Answer indication,canvas.Screen,2_25_4,,,,,,skipped,,556998.7000000002,,,556998.2999999998,556998.7999999998,2024-07-30T16:35:06.655Z,557029.9,T4AF_MdYhH,incremental,anketa,6645cf40bc81b65c5faccf1d,participant,hcpib7dulz8mr0hb,,,,,"Kamo je djevojka razmišljala o slobode, idući?","Djevojka je razmišljala o slobode, idući do mora.",ai,,,23,,,
,inter-stimulus,canvas.Screen,2_25_5,,,,,,response,1263.2000000005355,556998.7999999998,557013.498,557029.9,558293.1000000006,558293.7000000002,2024-07-30T16:35:07.950Z,558296.3,T4AF_MdYhH,incremental,anketa,6645cf40bc81b65c5faccf1d,participant,hcpib7dulz8mr0hb,,,mousedown,,"Kamo je djevojka razmišljala o slobode, idući?","Djevojka je razmišljala o slobode, idući do mora.",ai,,,23,,,
,Sequence,flow.Sequence,2_25,,,,,,completion,11593.700000000536,546685.8999999994,546682.596,546699.4,558293.1000000006,558293.7999999998,2024-07-30T16:35:07.950Z,558296.3,T4AF_MdYhH,incremental,anketa,6645cf40bc81b65c5faccf1d,participant,hcpib7dulz8mr0hb,,,,,"Kamo je djevojka razmišljala o slobode, idući?","Djevojka je razmišljala o slobode, idući do mora.",ai,,,23,,,
,context,canvas.Screen,2_26_0_0,,,,,,response,1076.5999999993946,558293.9999999991,558279.85,558296.3,559372.8999999994,559373.4999999991,2024-07-30T16:35:09.030Z,559379.3,T4AF_MdYhH,incremental,anketa,6645cf40bc81b65c5faccf1d,participant,hcpib7dulz8mr0hb,,,click,,Što Miloš je opljačkao banku da kupi?,Miloš je opljačkao banku da kupi kuću.,ai,,,20,,,
,Timer frame,html.Frame,2_26_0,,,,,,,1077.3000000005122,558293.7999999998,558279.85,558296.3,559373.6000000006,559373.6000000006,2024-07-30T16:35:09.030Z,559379.3,T4AF_MdYhH,incremental,anketa,6645cf40bc81b65c5faccf1d,participant,hcpib7dulz8mr0hb,,,,,Što Miloš je opljačkao banku da kupi?,Miloš je opljačkao banku da kupi kuću.,ai,,,20,,,
,stimulus,canvas.Screen,2_26_1_0,,,,,,response,6961.599999999395,559373.7000000002,559363.49,559379.3,566340.8999999994,566341.3999999994,2024-07-30T16:35:15.998Z,566344.2,T4AF_MdYhH,incremental,anketa,6645cf40bc81b65c5faccf1d,participant,hcpib7dulz8mr0hb,,1,click @1,,Što Miloš je opljačkao banku da kupi?,Miloš je opljačkao banku da kupi kuću.,ai,,,20,,,
,Timer frame,html.Frame,2_26_1,,,,,,,6962.199999999022,559373.6000000006,559363.49,559379.3,566341.4999999991,566341.4999999991,2024-07-30T16:35:15.998Z,566344.2,T4AF_MdYhH,incremental,anketa,6645cf40bc81b65c5faccf1d,participant,hcpib7dulz8mr0hb,,,,,Što Miloš je opljačkao banku da kupi?,Miloš je opljačkao banku da kupi kuću.,ai,,,20,,,
,Spremanje,canvas.Screen,2_26_2,,,,,,skipped,,566341.4999999991,,,566341.4999999991,566341.6000000006,2024-07-30T16:35:15.998Z,566344.2,T4AF_MdYhH,incremental,anketa,6645cf40bc81b65c5faccf1d,participant,hcpib7dulz8mr0hb,,,,,Što Miloš je opljačkao banku da kupi?,Miloš je opljačkao banku da kupi kuću.,ai,,,20,,,
,Question form,html.Form,2_26_3,,,,,,skipped,,566341.7000000002,,,566341.4999999991,566341.7000000002,2024-07-30T16:35:15.998Z,566344.2,T4AF_MdYhH,incremental,anketa,6645cf40bc81b65c5faccf1d,participant,hcpib7dulz8mr0hb,,,,,Što Miloš je opljačkao banku da kupi?,Miloš je opljačkao banku da kupi kuću.,ai,,,20,,,
,Answer indication,canvas.Screen,2_26_4,,,,,,skipped,,566341.9999999991,,,566341.4999999991,566341.9999999991,2024-07-30T16:35:15.998Z,566344.2,T4AF_MdYhH,incremental,anketa,6645cf40bc81b65c5faccf1d,participant,hcpib7dulz8mr0hb,,,,,Što Miloš je opljačkao banku da kupi?,Miloš je opljačkao banku da kupi kuću.,ai,,,20,,,
,inter-stimulus,canvas.Screen,2_26_5,,,,,,response,781.0000000002328,566342.1000000006,566328.236,566344.2,567125.2000000002,567125.7999999998,2024-07-30T16:35:16.782Z,567127.794,T4AF_MdYhH,incremental,anketa,6645cf40bc81b65c5faccf1d,participant,hcpib7dulz8mr0hb,,,mousedown,,Što Miloš je opljačkao banku da kupi?,Miloš je opljačkao banku da kupi kuću.,ai,,,20,,,
,Sequence,flow.Sequence,2_26,,,,,,completion,8828.90000000014,558293.7999999998,558279.85,558296.3,567125.2000000002,567125.7999999998,2024-07-30T16:35:16.782Z,567127.794,T4AF_MdYhH,incremental,anketa,6645cf40bc81b65c5faccf1d,participant,hcpib7dulz8mr0hb,,,,,Što Miloš je opljačkao banku da kupi?,Miloš je opljačkao banku da kupi kuću.,ai,,,20,,,
,context,canvas.Screen,2_27_0_0,,,,,,response,2397.0059999998193,567125.9999999991,567127.794,567127.794,569524.7999999998,569525.2999999998,2024-07-30T16:35:19.181Z,569543.5,T4AF_MdYhH,incremental,anketa,6645cf40bc81b65c5faccf1d,participant,hcpib7dulz8mr0hb,,,click,,"Kamo da ne odeš gladan, doručkovao si?",Doručkovao si da ne odeš gladan u planine.,ai,,,21,,,
,Timer frame,html.Frame,2_27_0,,,,,,,2397.7059999990743,567125.8999999994,567127.794,567127.794,569525.4999999991,569525.4999999991,2024-07-30T16:35:19.182Z,569543.5,T4AF_MdYhH,incremental,anketa,6645cf40bc81b65c5faccf1d,participant,hcpib7dulz8mr0hb,,,,,"Kamo da ne odeš gladan, doručkovao si?",Doručkovao si da ne odeš gladan u planine.,ai,,,21,,,
,stimulus,canvas.Screen,2_27_1_0,,,,,,response,6966.299999999814,569525.6000000006,569526.93,569543.5,576509.7999999998,576510.2999999998,2024-07-30T16:35:26.166Z,576525.4,T4AF_MdYhH,incremental,anketa,6645cf40bc81b65c5faccf1d,participant,hcpib7dulz8mr0hb,,1,click @1,,"Kamo da ne odeš gladan, doručkovao si?",Doručkovao si da ne odeš gladan u planine.,ai,,,21,,,
,Timer frame,html.Frame,2_27_1,,,,,,,6966.899999999441,569525.4999999991,569526.93,569543.5,576510.3999999994,576510.3999999994,2024-07-30T16:35:26.167Z,576525.4,T4AF_MdYhH,incremental,anketa,6645cf40bc81b65c5faccf1d,participant,hcpib7dulz8mr0hb,,,,,"Kamo da ne odeš gladan, doručkovao si?",Doručkovao si da ne odeš gladan u planine.,ai,,,21,,,
,Spremanje,canvas.Screen,2_27_2,,,,,,skipped,,576510.4999999991,,,576510.3999999994,576510.4999999991,2024-07-30T16:35:26.167Z,576525.4,T4AF_MdYhH,incremental,anketa,6645cf40bc81b65c5faccf1d,participant,hcpib7dulz8mr0hb,,,,,"Kamo da ne odeš gladan, doručkovao si?",Doručkovao si da ne odeš gladan u planine.,ai,,,21,,,
,Question form,html.Form,2_27_3,,,,,,skipped,,576510.4999999991,,,576510.3999999994,576510.4999999991,2024-07-30T16:35:26.167Z,576525.4,T4AF_MdYhH,incremental,anketa,6645cf40bc81b65c5faccf1d,participant,hcpib7dulz8mr0hb,,,,,"Kamo da ne odeš gladan, doručkovao si?",Doručkovao si da ne odeš gladan u planine.,ai,,,21,,,
,Answer indication,canvas.Screen,2_27_4,,,,,,skipped,,576510.7999999998,,,576510.3999999994,576510.8999999994,2024-07-30T16:35:26.167Z,576525.4,T4AF_MdYhH,incremental,anketa,6645cf40bc81b65c5faccf1d,participant,hcpib7dulz8mr0hb,,,,,"Kamo da ne odeš gladan, doručkovao si?",Doručkovao si da ne odeš gladan u planine.,ai,,,21,,,
,inter-stimulus,canvas.Screen,2_27_5,,,,,,response,1023.7000000005355,576510.8999999994,576508.83,576525.4,577549.1000000006,577549.7999999998,2024-07-30T16:35:27.206Z,577558.2,T4AF_MdYhH,incremental,anketa,6645cf40bc81b65c5faccf1d,participant,hcpib7dulz8mr0hb,,,mousedown,,"Kamo da ne odeš gladan, doručkovao si?",Doručkovao si da ne odeš gladan u planine.,ai,,,21,,,
,Sequence,flow.Sequence,2_27,,,,,,completion,10421.306000000564,567125.8999999994,567127.794,567127.794,577549.1000000006,577549.7999999998,2024-07-30T16:35:27.206Z,577558.2,T4AF_MdYhH,incremental,anketa,6645cf40bc81b65c5faccf1d,participant,hcpib7dulz8mr0hb,,,,,"Kamo da ne odeš gladan, doručkovao si?",Doručkovao si da ne odeš gladan u planine.,ai,,,21,,,
,context,canvas.Screen,2_28_0_0,,,,,,timeout,10997.300000000047,577549.8999999994,577541.71,577558.2,588538.8,588539.8999999994,2024-07-30T16:35:38.196Z,588555.5,T4AF_MdYhH,incremental,anketa,6645cf40bc81b65c5faccf1d,participant,hcpib7dulz8mr0hb,,,,,Što želiš da pronaći nije bilo teško?,Pronaći apoteku nije bilo teško.,si,,,14,,,2305
,Timer frame,html.Frame,2_28_0,,,,,,,10981.799999999115,577549.8999999994,577541.71,577558.2,588539.9999999991,588539.9999999991,2024-07-30T16:35:38.196Z,588572.2,T4AF_MdYhH,incremental,anketa,6645cf40bc81b65c5faccf1d,participant,hcpib7dulz8mr0hb,,,,,Što želiš da pronaći nije bilo teško?,Pronaći apoteku nije bilo teško.,si,,,14,,,2305
,stimulus,canvas.Screen,2_28_1_0,,,,,,response,10360.59999999986,588540.1000000006,588555.5,588572.2,598932.7999999998,598933.2999999998,2024-07-30T16:35:48.589Z,598953,T4AF_MdYhH,incremental,anketa,6645cf40bc81b65c5faccf1d,participant,hcpib7dulz8mr0hb,,2,click @2,,Što želiš da pronaći nije bilo teško?,Pronaći apoteku nije bilo teško.,si,,,14,,,2305
,Timer frame,html.Frame,2_28_1,,,,,,,10361.299999999115,588540.1000000006,588555.5,588572.2,598933.4999999991,598933.4999999991,2024-07-30T16:35:48.590Z,598953,T4AF_MdYhH,incremental,anketa,6645cf40bc81b65c5faccf1d,participant,hcpib7dulz8mr0hb,,,,,Što želiš da pronaći nije bilo teško?,Pronaći apoteku nije bilo teško.,si,,,14,,,2305
,Spremanje,canvas.Screen,2_28_2,,,,,,skipped,,598933.4999999991,,,598933.4999999991,598933.4999999991,2024-07-30T16:35:48.590Z,598953,T4AF_MdYhH,incremental,anketa,6645cf40bc81b65c5faccf1d,participant,hcpib7dulz8mr0hb,,,,,Što želiš da pronaći nije bilo teško?,Pronaći apoteku nije bilo teško.,si,,,14,,,2305
,Question form,html.Form,2_28_3,,,,,,skipped,,598933.4999999991,,,598933.4999999991,598933.6000000006,2024-07-30T16:35:48.590Z,598953,T4AF_MdYhH,incremental,anketa,6645cf40bc81b65c5faccf1d,participant,hcpib7dulz8mr0hb,,,,,Što želiš da pronaći nije bilo teško?,Pronaći apoteku nije bilo teško.,si,,,14,,,2305
,Answer indication,canvas.Screen,2_28_4,,,,,,skipped,,598933.8999999994,,,598933.4999999991,598933.8999999994,2024-07-30T16:35:48.590Z,598953,T4AF_MdYhH,incremental,anketa,6645cf40bc81b65c5faccf1d,participant,hcpib7dulz8mr0hb,,,,,Što želiš da pronaći nije bilo teško?,Pronaći apoteku nije bilo teško.,si,,,14,,,2305
,inter-stimulus,canvas.Screen,2_28_5,,,,,,response,1828.1000000005588,598933.9999999991,598936.366,598953,600781.1000000006,600781.7000000002,2024-07-30T16:35:50.438Z,600802.6,T4AF_MdYhH,incremental,anketa,6645cf40bc81b65c5faccf1d,participant,hcpib7dulz8mr0hb,,,mousedown,,Što želiš da pronaći nije bilo teško?,Pronaći apoteku nije bilo teško.,si,,,14,,,2305
,Sequence,flow.Sequence,2_28,,,,,,completion,23222.900000000605,577549.8999999994,577541.71,577558.2,600781.1000000006,600781.7999999998,2024-07-30T16:35:50.438Z,600802.6,T4AF_MdYhH,incremental,anketa,6645cf40bc81b65c5faccf1d,participant,hcpib7dulz8mr0hb,,,,,Što želiš da pronaći nije bilo teško?,Pronaći apoteku nije bilo teško.,si,,,14,,,2305
,context,canvas.Screen,2_29_0_0,,,,,,timeout,10997.20000000007,600781.8999999994,600786.1,600802.6,611783.3,611783.6000000006,2024-07-30T16:36:01.441Z,611799.8,T4AF_MdYhH,incremental,anketa,6645cf40bc81b65c5faccf1d,participant,hcpib7dulz8mr0hb,,,,,Vjerojatno je tu lijepa nekad bila crkva.,Vjerojatno je tu nekad bila lijepa crkva.,lbc,,,36,,,
,Timer frame,html.Frame,2_29_0,,,,,,,10981.10000000021,600781.7999999998,600786.1,600802.6,611783.7000000002,611783.7999999998,2024-07-30T16:36:01.441Z,611816.5,T4AF_MdYhH,incremental,anketa,6645cf40bc81b65c5faccf1d,participant,hcpib7dulz8mr0hb,,,,,Vjerojatno je tu lijepa nekad bila crkva.,Vjerojatno je tu nekad bila lijepa crkva.,lbc,,,36,,,
,stimulus,canvas.Screen,2_29_1_0,,,,,,response,7684.299999999814,611783.8999999994,611799.8,611816.5,619500.7999999998,619501.2000000002,2024-07-30T16:36:09.158Z,619531.3,T4AF_MdYhH,incremental,anketa,6645cf40bc81b65c5faccf1d,participant,hcpib7dulz8mr0hb,,5,click @5,,Vjerojatno je tu lijepa nekad bila crkva.,Vjerojatno je tu nekad bila lijepa crkva.,lbc,,,36,,,
,Timer frame,html.Frame,2_29_1,,,,,,,7684.799999999814,611783.7999999998,611799.8,611816.5,619501.2999999998,619501.3999999994,2024-07-30T16:36:09.158Z,619531.3,T4AF_MdYhH,incremental,anketa,6645cf40bc81b65c5faccf1d,participant,hcpib7dulz8mr0hb,,,,,Vjerojatno je tu lijepa nekad bila crkva.,Vjerojatno je tu nekad bila lijepa crkva.,lbc,,,36,,,
,Spremanje,canvas.Screen,2_29_2,,,,,,skipped,,619501.3999999994,,,619501.2999999998,619501.3999999994,2024-07-30T16:36:09.158Z,619531.3,T4AF_MdYhH,incremental,anketa,6645cf40bc81b65c5faccf1d,participant,hcpib7dulz8mr0hb,,,,,Vjerojatno je tu lijepa nekad bila crkva.,Vjerojatno je tu nekad bila lijepa crkva.,lbc,,,36,,,
