meta,sender,sender_type,sender_id,age,education,croatian-knowledge,occupation,,ended_on,duration,time_run,time_render,time_show,time_end,time_commit,timestamp,time_switch,openLabId,type,task,project,status,code,confirmationCode,response,response_action,answer_true,stimulus,context,island_type,transfer_s,transfer_c,id,right_answer,question,change_date
"{""labjs_version"":""20.2.4"",""labjs_build"":{""flavor"":""production"",""commit"":""f5b4a49f956347addd546a832a3327688c2c0fef""},""location"":""https://open-lab.online/test/anketa/66aa4ef9e3bab725623a451d"",""userAgent"":""Mozilla/5.0 (Linux; Android 10; K) AppleWebKit/537.36 (KHTML, like Gecko) Chrome/127.0.0.0 Mobile Safari/537.36"",""platform"":""Linux armv81"",""language"":""en-GB"",""locale"":""en-GB"",""timeZone"":""Europe/Zagreb"",""timezoneOffset"":-120,""screen_width"":393,""screen_height"":873,""scroll_width"":980,""scroll_height"":1916,""window_innerWidth"":980,""window_innerHeight"":1825,""devicePixelRatio"":2.75}",Demography form,html.Form,0,50,,mother-tongue,"Turizam ",,form submission,24948.69999998212,1183.2999999821186,1207.8,1224.1,26172.79999998212,26176,2024-07-31T14:51:00.376Z,26244.4,TYqkLYL0P8,incremental,anketa,6645cf40bc81b65c5faccf1d,participant,hcpib7dulz9yqhc1,628671,,,,,,,,,,,,
,context,canvas.Screen,1_0,,,,,,response,21416.399999982117,26177.59999999404,26230.128,26244.4,47660.79999998212,47918.29999998212,2024-07-31T14:51:22.118Z,48014.1,TYqkLYL0P8,incremental,anketa,6645cf40bc81b65c5faccf1d,participant,hcpib7dulz9yqhc1,,,click,,,,,,,,,,
,stimulus,canvas.Screen,1_1,,,,,,response,28390.19999998212,47919.69999998808,47991.63,48014.1,76404.29999998212,76624.09999999404,2024-07-31T14:51:50.824Z,76731.8,TYqkLYL0P8,incremental,anketa,6645cf40bc81b65c5faccf1d,participant,hcpib7dulz9yqhc1,,7,click @7,,,,,,,,,,
,inter-stimulus,canvas.Screen,1_2,,,,,,response,15258.899999988076,76624.79999998212,76720.602,76731.8,91990.69999998808,92191.69999998808,2024-07-31T14:52:06.392Z,92256.6,TYqkLYL0P8,incremental,anketa,6645cf40bc81b65c5faccf1d,participant,hcpib7dulz9yqhc1,,,mousedown,,,,,,,,,,
,context,canvas.Screen,1_3,,,,,,response,2535.3000000059546,92193,92247.846,92256.6,94791.90000000596,94969.29999998212,2024-07-31T14:52:09.169Z,95059.5,TYqkLYL0P8,incremental,anketa,6645cf40bc81b65c5faccf1d,participant,hcpib7dulz9yqhc1,,,click,,,,,,,,,,
,stimulus,canvas.Screen,1_4,,,,,,response,5220.799999982119,94969.69999998808,95039.822,95059.5,100280.29999998212,100498.5,2024-07-31T14:52:14.698Z,100575.946,TYqkLYL0P8,incremental,anketa,6645cf40bc81b65c5faccf1d,participant,hcpib7dulz9yqhc1,,1,click @1,,,,,,,,,,
,inter-stimulus,canvas.Screen,1_5,,,,,,response,10179.554000000004,100499.59999999404,100575.946,100575.946,110755.5,110972.09999999404,2024-07-31T14:52:25.172Z,111092.3,TYqkLYL0P8,incremental,anketa,6645cf40bc81b65c5faccf1d,participant,hcpib7dulz9yqhc1,,,mousedown,,,,,,,,,,
,context,canvas.Screen,1_6,,,,,,response,2893.1000000059576,110973.5,111075.526,111092.3,113985.40000000596,114183.59999999404,2024-07-31T14:52:28.383Z,114289,TYqkLYL0P8,incremental,anketa,6645cf40bc81b65c5faccf1d,participant,hcpib7dulz9yqhc1,,,click,,,,,,,,,,
,stimulus,canvas.Screen,1_7_0,,,,,,response,7613.0999999940395,114193.29999998212,114258.84,114289,121902.09999999404,122123.40000000596,2024-07-31T14:52:36.323Z,122235.994,TYqkLYL0P8,incremental,anketa,6645cf40bc81b65c5faccf1d,participant,hcpib7dulz9yqhc1,,5,click @5,,,,,,,,,,
,Timer frame,html.Frame,1_7,,,,,,,7835.5999999940395,114184.79999998212,114258.84,114289,122124.59999999404,122127.59999999404,2024-07-31T14:52:36.327Z,122235.994,TYqkLYL0P8,incremental,anketa,6645cf40bc81b65c5faccf1d,participant,hcpib7dulz9yqhc1,,,,,,,,,,,,,
,Screen,canvas.Screen,1_8,,,,,,response,10398.406000005954,122128.59999999404,122235.994,122235.994,132634.40000000596,132845.40000000596,2024-07-31T14:52:47.045Z,132863.7,TYqkLYL0P8,incremental,anketa,6645cf40bc81b65c5faccf1d,participant,hcpib7dulz9yqhc1,,,mousedown,,,,,,,,,,
,Question form,html.Form,1_9,,,,,,form submission,12534.099999982107,132846.59999999404,132852.236,132863.7,145397.79999998212,145399,2024-07-31T14:52:59.599Z,145453.2,TYqkLYL0P8,incremental,anketa,6645cf40bc81b65c5faccf1d,participant,hcpib7dulz9yqhc1,,,,Zrele,,,,,,,,,
,Screen,canvas.Screen,1_10,,,,,,response,2040.7000000059488,145405.29999998212,145440.026,145453.2,147493.90000000596,147716.29999998212,2024-07-31T14:53:01.916Z,147830.8,TYqkLYL0P8,incremental,anketa,6645cf40bc81b65c5faccf1d,participant,hcpib7dulz9yqhc1,,,mousedown,,,,,,,,,,
,inter-stimulus,canvas.Screen,1_11,,,,,,response,5101.899999988091,147717.19999998808,147819.772,147830.8,152932.69999998808,153162.90000000596,2024-07-31T14:53:07.363Z,153255.2,TYqkLYL0P8,incremental,anketa,6645cf40bc81b65c5faccf1d,participant,hcpib7dulz9yqhc1,,,mousedown,,,,,,,,,,
,First stimuli,flow.Sequence,1,,,,,,completion,126688.29999998808,26177.29999998212,26230.128,26244.4,152932.69999998808,153170.90000000596,2024-07-31T14:53:07.371Z,153255.2,TYqkLYL0P8,incremental,anketa,6645cf40bc81b65c5faccf1d,participant,hcpib7dulz9yqhc1,,,,,,,,,,,,,
,context,canvas.Screen,2_0_0_0,,,,,,response,2384.899999994028,153173.90000000596,153243.316,153255.2,155640.09999999404,155867.79999998212,2024-07-31T14:53:10.068Z,155954.688,TYqkLYL0P8,incremental,anketa,6645cf40bc81b65c5faccf1d,participant,hcpib7dulz9yqhc1,,,click,,Čega si gledao prepričavanje?,Gledao si prepričavanje filma.,di,,,31,,,
,Timer frame,html.Frame,2_0_0,,,,,,,2612.9999999880674,153172.90000000596,153243.316,153255.2,155868.19999998808,155869.59999999404,2024-07-31T14:53:10.069Z,155954.688,TYqkLYL0P8,incremental,anketa,6645cf40bc81b65c5faccf1d,participant,hcpib7dulz9yqhc1,,,,,Čega si gledao prepričavanje?,Gledao si prepričavanje filma.,di,,,31,,,
,stimulus,canvas.Screen,2_0_1_0,,,,,,response,2376.0119999880844,155870.40000000596,155954.688,155954.688,158330.69999998808,158584.90000000596,2024-07-31T14:53:12.785Z,158680.1,TYqkLYL0P8,incremental,anketa,6645cf40bc81b65c5faccf1d,participant,hcpib7dulz9yqhc1,,1,click @1,,Čega si gledao prepričavanje?,Gledao si prepričavanje filma.,di,,,31,,,
,Timer frame,html.Frame,2_0_1,,,,,,,2631.212000005966,155869.90000000596,155954.688,155954.688,158585.90000000596,158587,2024-07-31T14:53:12.787Z,158680.1,TYqkLYL0P8,incremental,anketa,6645cf40bc81b65c5faccf1d,participant,hcpib7dulz9yqhc1,,,,,Čega si gledao prepričavanje?,Gledao si prepričavanje filma.,di,,,31,,,
,Spremanje,canvas.Screen,2_0_2,,,,,,skipped,,158587.59999999404,,,158585.90000000596,158588.19999998808,2024-07-31T14:53:12.788Z,158680.1,TYqkLYL0P8,incremental,anketa,6645cf40bc81b65c5faccf1d,participant,hcpib7dulz9yqhc1,,,,,Čega si gledao prepričavanje?,Gledao si prepričavanje filma.,di,,,31,,,
,Question form,html.Form,2_0_3,,,,,,skipped,,158588.69999998808,,,158585.90000000596,158589.29999998212,2024-07-31T14:53:12.789Z,158680.1,TYqkLYL0P8,incremental,anketa,6645cf40bc81b65c5faccf1d,participant,hcpib7dulz9yqhc1,,,,,Čega si gledao prepričavanje?,Gledao si prepričavanje filma.,di,,,31,,,
,Answer indication,canvas.Screen,2_0_4,,,,,,skipped,,158598.40000000596,,,158585.90000000596,158599.29999998212,2024-07-31T14:53:12.799Z,158680.1,TYqkLYL0P8,incremental,anketa,6645cf40bc81b65c5faccf1d,participant,hcpib7dulz9yqhc1,,,,,Čega si gledao prepričavanje?,Gledao si prepričavanje filma.,di,,,31,,,
,inter-stimulus,canvas.Screen,2_0_5,,,,,,response,1643.6999999821128,158600.09999999404,158666.224,158680.1,160323.79999998212,160554.5,2024-07-31T14:53:14.754Z,160650.9,TYqkLYL0P8,incremental,anketa,6645cf40bc81b65c5faccf1d,participant,hcpib7dulz9yqhc1,,,mousedown,,Čega si gledao prepričavanje?,Gledao si prepričavanje filma.,di,,,31,,,
,Sequence,flow.Sequence,2_0,,,,,,completion,7068.599999982107,153172.69999998808,153243.316,153255.2,160323.79999998212,160556.29999998212,2024-07-31T14:53:14.756Z,160650.9,TYqkLYL0P8,incremental,anketa,6645cf40bc81b65c5faccf1d,participant,hcpib7dulz9yqhc1,,,,,Čega si gledao prepričavanje?,Gledao si prepričavanje filma.,di,,,31,,,
,context,canvas.Screen,2_1_0_0,,,,,,response,2104.299999988085,160558.19999998808,160646.688,160650.9,162755.19999998808,162984.90000000596,2024-07-31T14:53:17.185Z,163010.798,TYqkLYL0P8,incremental,anketa,6645cf40bc81b65c5faccf1d,participant,hcpib7dulz9yqhc1,,,click,,U sutra ne samo svatko jedan može gledati.,Ne može svatko gledati u sutra.,nf,,,45,,,
,Timer frame,html.Frame,2_1_0,,,,,,,2334.3999999821244,160557.29999998212,160646.688,160650.9,162985.29999998212,162985.59999999404,2024-07-31T14:53:17.185Z,163010.798,TYqkLYL0P8,incremental,anketa,6645cf40bc81b65c5faccf1d,participant,hcpib7dulz9yqhc1,,,,,U sutra ne samo svatko jedan može gledati.,Ne može svatko gledati u sutra.,nf,,,45,,,
,stimulus,canvas.Screen,2_1_1_0,,,,,,response,3360.1020000059507,162986.29999998212,163010.798,163010.798,166370.90000000596,166614,2024-07-31T14:53:20.814Z,166762.7,TYqkLYL0P8,incremental,anketa,6645cf40bc81b65c5faccf1d,participant,hcpib7dulz9yqhc1,,1,click @1,,U sutra ne samo svatko jedan može gledati.,Ne može svatko gledati u sutra.,nf,,,45,,,
,Timer frame,html.Frame,2_1_1,,,,,,,3604.20199999999,162985.90000000596,163010.798,163010.798,166615,166615.69999998808,2024-07-31T14:53:20.816Z,166762.7,TYqkLYL0P8,incremental,anketa,6645cf40bc81b65c5faccf1d,participant,hcpib7dulz9yqhc1,,,,,U sutra ne samo svatko jedan može gledati.,Ne može svatko gledati u sutra.,nf,,,45,,,
,Spremanje,canvas.Screen,2_1_2,,,,,,skipped,,166616.5,,,166615,166617.09999999404,2024-07-31T14:53:20.817Z,166762.7,TYqkLYL0P8,incremental,anketa,6645cf40bc81b65c5faccf1d,participant,hcpib7dulz9yqhc1,,,,,U sutra ne samo svatko jedan može gledati.,Ne može svatko gledati u sutra.,nf,,,45,,,
,Question form,html.Form,2_1_3,,,,,,skipped,,166617.69999998808,,,166615,166618.40000000596,2024-07-31T14:53:20.818Z,166762.7,TYqkLYL0P8,incremental,anketa,6645cf40bc81b65c5faccf1d,participant,hcpib7dulz9yqhc1,,,,,U sutra ne samo svatko jedan može gledati.,Ne može svatko gledati u sutra.,nf,,,45,,,
,Answer indication,canvas.Screen,2_1_4,,,,,,skipped,,166629.09999999404,,,166615,166630.19999998808,2024-07-31T14:53:20.830Z,166762.7,TYqkLYL0P8,incremental,anketa,6645cf40bc81b65c5faccf1d,participant,hcpib7dulz9yqhc1,,,,,U sutra ne samo svatko jedan može gledati.,Ne može svatko gledati u sutra.,nf,,,45,,,
,inter-stimulus,canvas.Screen,2_1_5,,,,,,response,2144.200000005949,166631.5,166751.92,166762.7,168906.90000000596,169118.90000000596,2024-07-31T14:53:23.319Z,169189.9,TYqkLYL0P8,incremental,anketa,6645cf40bc81b65c5faccf1d,participant,hcpib7dulz9yqhc1,,,mousedown,,U sutra ne samo svatko jedan može gledati.,Ne može svatko gledati u sutra.,nf,,,45,,,
,Sequence,flow.Sequence,2_1,,,,,,completion,8256.000000005966,160557,160646.688,160650.9,168906.90000000596,169121.40000000596,2024-07-31T14:53:23.321Z,169189.9,TYqkLYL0P8,incremental,anketa,6645cf40bc81b65c5faccf1d,participant,hcpib7dulz9yqhc1,,,,,U sutra ne samo svatko jedan može gledati.,Ne može svatko gledati u sutra.,nf,,,45,,,
,context,canvas.Screen,2_2_0_0,,,,,,response,4463.199999994045,169123.59999999404,169179.27,169189.9,173653.09999999404,173874.5,2024-07-31T14:53:28.074Z,174009.9,TYqkLYL0P8,incremental,anketa,6645cf40bc81b65c5faccf1d,participant,hcpib7dulz9yqhc1,,,click,,Kakva je kraj mene biciklom prošla djevojka?,Kraj mene je biciklom prošla vrlo lijepa djevojka.,ai,,,27,,,
,Timer frame,html.Frame,2_2_0,,,,,,,4685.500000005966,169122.59999999404,169179.27,169189.9,173875.40000000596,173876.19999998808,2024-07-31T14:53:28.076Z,174009.9,TYqkLYL0P8,incremental,anketa,6645cf40bc81b65c5faccf1d,participant,hcpib7dulz9yqhc1,,,,,Kakva je kraj mene biciklom prošla djevojka?,Kraj mene je biciklom prošla vrlo lijepa djevojka.,ai,,,27,,,
,stimulus,canvas.Screen,2_2_1_0,,,,,,response,4363.699999994045,173877.90000000596,173996.792,174009.9,178373.59999999404,178626.59999999404,2024-07-31T14:53:32.827Z,178714.8,TYqkLYL0P8,incremental,anketa,6645cf40bc81b65c5faccf1d,participant,hcpib7dulz9yqhc1,,7,click @7,,Kakva je kraj mene biciklom prošla djevojka?,Kraj mene je biciklom prošla vrlo lijepa djevojka.,ai,,,27,,,
,Timer frame,html.Frame,2_2_1,,,,,,,4618.000000005966,173876.69999998808,173996.792,174009.9,178627.90000000596,178628.69999998808,2024-07-31T14:53:32.829Z,178714.8,TYqkLYL0P8,incremental,anketa,6645cf40bc81b65c5faccf1d,participant,hcpib7dulz9yqhc1,,,,,Kakva je kraj mene biciklom prošla djevojka?,Kraj mene je biciklom prošla vrlo lijepa djevojka.,ai,,,27,,,
,Spremanje,canvas.Screen,2_2_2,,,,,,skipped,,178629.40000000596,,,178627.90000000596,178629.79999998212,2024-07-31T14:53:32.830Z,178714.8,TYqkLYL0P8,incremental,anketa,6645cf40bc81b65c5faccf1d,participant,hcpib7dulz9yqhc1,,,,,Kakva je kraj mene biciklom prošla djevojka?,Kraj mene je biciklom prošla vrlo lijepa djevojka.,ai,,,27,,,
,Question form,html.Form,2_2_3,,,,,,skipped,,178630.40000000596,,,178627.90000000596,178631,2024-07-31T14:53:32.831Z,178714.8,TYqkLYL0P8,incremental,anketa,6645cf40bc81b65c5faccf1d,participant,hcpib7dulz9yqhc1,,,,,Kakva je kraj mene biciklom prošla djevojka?,Kraj mene je biciklom prošla vrlo lijepa djevojka.,ai,,,27,,,
,Answer indication,canvas.Screen,2_2_4,,,,,,skipped,,178638.69999998808,,,178627.90000000596,178639.5,2024-07-31T14:53:32.839Z,178714.8,TYqkLYL0P8,incremental,anketa,6645cf40bc81b65c5faccf1d,participant,hcpib7dulz9yqhc1,,,,,Kakva je kraj mene biciklom prošla djevojka?,Kraj mene je biciklom prošla vrlo lijepa djevojka.,ai,,,27,,,
,inter-stimulus,canvas.Screen,2_2_5,,,,,,response,2365.9999999821302,178640.09999999404,178703.288,178714.8,181080.79999998212,181299,2024-07-31T14:53:35.499Z,181408.3,TYqkLYL0P8,incremental,anketa,6645cf40bc81b65c5faccf1d,participant,hcpib7dulz9yqhc1,,,mousedown,,Kakva je kraj mene biciklom prošla djevojka?,Kraj mene je biciklom prošla vrlo lijepa djevojka.,ai,,,27,,,
,Sequence,flow.Sequence,2_2,,,,,,completion,11890.899999982124,169122.19999998808,169179.27,169189.9,181080.79999998212,181300.79999998212,2024-07-31T14:53:35.501Z,181408.3,TYqkLYL0P8,incremental,anketa,6645cf40bc81b65c5faccf1d,participant,hcpib7dulz9yqhc1,,,,,Kakva je kraj mene biciklom prošla djevojka?,Kraj mene je biciklom prošla vrlo lijepa djevojka.,ai,,,27,,,
,context,canvas.Screen,2_3_0_0,,,,,,response,1702.8999999880907,181303.09999999404,181398.026,181408.3,183111.19999998808,183333.69999998808,2024-07-31T14:53:37.534Z,183420.4,TYqkLYL0P8,incremental,anketa,6645cf40bc81b65c5faccf1d,participant,hcpib7dulz9yqhc1,,,click,,Za kim su banditi imali pitanja?,Ti banditi su imali pitanja za mene.,nf,,,40,,,
,Timer frame,html.Frame,2_3_0,,,,,,,1926.7999999940512,181302,181398.026,181408.3,183335.09999999404,183335.90000000596,2024-07-31T14:53:37.536Z,183420.4,TYqkLYL0P8,incremental,anketa,6645cf40bc81b65c5faccf1d,participant,hcpib7dulz9yqhc1,,,,,Za kim su banditi imali pitanja?,Ti banditi su imali pitanja za mene.,nf,,,40,,,
,stimulus,canvas.Screen,2_3_1_0,,,,,,response,3719.799999988085,183337.90000000596,183407.192,183420.4,187140.19999998808,187378.09999999404,2024-07-31T14:53:41.578Z,187484.9,TYqkLYL0P8,incremental,anketa,6645cf40bc81b65c5faccf1d,participant,hcpib7dulz9yqhc1,,1,click @1,,Za kim su banditi imali pitanja?,Ti banditi su imali pitanja za mene.,nf,,,40,,,
,Timer frame,html.Frame,2_3_1,,,,,,,3958.299999988085,183336.59999999404,183407.192,183420.4,187378.69999998808,187379.19999998808,2024-07-31T14:53:41.579Z,187484.9,TYqkLYL0P8,incremental,anketa,6645cf40bc81b65c5faccf1d,participant,hcpib7dulz9yqhc1,,,,,Za kim su banditi imali pitanja?,Ti banditi su imali pitanja za mene.,nf,,,40,,,
,Spremanje,canvas.Screen,2_3_2,,,,,,skipped,,187379.69999998808,,,187378.69999998808,187380.09999999404,2024-07-31T14:53:41.580Z,187484.9,TYqkLYL0P8,incremental,anketa,6645cf40bc81b65c5faccf1d,participant,hcpib7dulz9yqhc1,,,,,Za kim su banditi imali pitanja?,Ti banditi su imali pitanja za mene.,nf,,,40,,,
,Question form,html.Form,2_3_3,,,,,,skipped,,187380.40000000596,,,187378.69999998808,187380.90000000596,2024-07-31T14:53:41.581Z,187484.9,TYqkLYL0P8,incremental,anketa,6645cf40bc81b65c5faccf1d,participant,hcpib7dulz9yqhc1,,,,,Za kim su banditi imali pitanja?,Ti banditi su imali pitanja za mene.,nf,,,40,,,
,Answer indication,canvas.Screen,2_3_4,,,,,,skipped,,187384.90000000596,,,187378.69999998808,187385.29999998212,2024-07-31T14:53:41.585Z,187484.9,TYqkLYL0P8,incremental,anketa,6645cf40bc81b65c5faccf1d,participant,hcpib7dulz9yqhc1,,,,,Za kim su banditi imali pitanja?,Ti banditi su imali pitanja za mene.,nf,,,40,,,
,inter-stimulus,canvas.Screen,2_3_5,,,,,,response,1535.1000000000058,187385.79999998212,187471.094,187484.9,189020,189243.29999998212,2024-07-31T14:53:43.443Z,189289.1,TYqkLYL0P8,incremental,anketa,6645cf40bc81b65c5faccf1d,participant,hcpib7dulz9yqhc1,,,mousedown,,Za kim su banditi imali pitanja?,Ti banditi su imali pitanja za mene.,nf,,,40,,,
,Sequence,flow.Sequence,2_3,,,,,,completion,7611.700000000012,181301.69999998808,181398.026,181408.3,189020,189244.09999999404,2024-07-31T14:53:43.444Z,189289.1,TYqkLYL0P8,incremental,anketa,6645cf40bc81b65c5faccf1d,participant,hcpib7dulz9yqhc1,,,,,Za kim su banditi imali pitanja?,Ti banditi su imali pitanja za mene.,nf,,,40,,,
,context,canvas.Screen,2_4_0_0,,,,,,response,4324.699999982113,189245,189284.828,189289.1,193613.79999998212,193860.09999999404,2024-07-31T14:53:48.060Z,193964,TYqkLYL0P8,incremental,anketa,6645cf40bc81b65c5faccf1d,participant,hcpib7dulz9yqhc1,,,click,,"Tko se nadaš da će napraviti prezentaciju, a Đure nacrtati sliku??","Nadaš se da će Vesna napraviti prezentaciju, a Đure nacrtati sliku..",csi,42,44,2,,,
,Timer frame,html.Frame,2_4_0,,,,,,,4572.300000005955,189244.59999999404,189284.828,189289.1,193861.40000000596,193862.29999998212,2024-07-31T14:53:48.062Z,193964,TYqkLYL0P8,incremental,anketa,6645cf40bc81b65c5faccf1d,participant,hcpib7dulz9yqhc1,,,,,"Tko se nadaš da će napraviti prezentaciju, a Đure nacrtati sliku??","Nadaš se da će Vesna napraviti prezentaciju, a Đure nacrtati sliku..",csi,42,44,2,,,
,stimulus,canvas.Screen,2_4_1_0,,,,,,response,4739.9000000059605,193864.19999998808,193933.328,193964,198703.90000000596,198953.79999998212,2024-07-31T14:53:53.154Z,199064.954,TYqkLYL0P8,incremental,anketa,6645cf40bc81b65c5faccf1d,participant,hcpib7dulz9yqhc1,,5,click @5,,"Tko se nadaš da će napraviti prezentaciju, a Đure nacrtati sliku??","Nadaš se da će Vesna napraviti prezentaciju, a Đure nacrtati sliku..",csi,42,44,2,,,
,Timer frame,html.Frame,2_4_1,,,,,,,4990.5999999940395,193862.90000000596,193933.328,193964,198954.59999999404,198955.19999998808,2024-07-31T14:53:53.155Z,199064.954,TYqkLYL0P8,incremental,anketa,6645cf40bc81b65c5faccf1d,participant,hcpib7dulz9yqhc1,,,,,"Tko se nadaš da će napraviti prezentaciju, a Đure nacrtati sliku??","Nadaš se da će Vesna napraviti prezentaciju, a Đure nacrtati sliku..",csi,42,44,2,,,
,Spremanje,canvas.Screen,2_4_2,,,,,,skipped,,198955.79999998212,,,198954.59999999404,198956.29999998212,2024-07-31T14:53:53.156Z,199064.954,TYqkLYL0P8,incremental,anketa,6645cf40bc81b65c5faccf1d,participant,hcpib7dulz9yqhc1,,,,,"Tko se nadaš da će napraviti prezentaciju, a Đure nacrtati sliku??","Nadaš se da će Vesna napraviti prezentaciju, a Đure nacrtati sliku..",csi,42,44,2,,,
,Question form,html.Form,2_4_3,,,,,,skipped,,198956.79999998212,,,198954.59999999404,198957.40000000596,2024-07-31T14:53:53.157Z,199064.954,TYqkLYL0P8,incremental,anketa,6645cf40bc81b65c5faccf1d,participant,hcpib7dulz9yqhc1,,,,,"Tko se nadaš da će napraviti prezentaciju, a Đure nacrtati sliku??","Nadaš se da će Vesna napraviti prezentaciju, a Đure nacrtati sliku..",csi,42,44,2,,,
,Answer indication,canvas.Screen,2_4_4,,,,,,skipped,,198965.5,,,198954.59999999404,198966.5,2024-07-31T14:53:53.166Z,199064.954,TYqkLYL0P8,incremental,anketa,6645cf40bc81b65c5faccf1d,participant,hcpib7dulz9yqhc1,,,,,"Tko se nadaš da će napraviti prezentaciju, a Đure nacrtati sliku??","Nadaš se da će Vesna napraviti prezentaciju, a Đure nacrtati sliku..",csi,42,44,2,,,
,inter-stimulus,canvas.Screen,2_4_5,,,,,,response,3786.8459999821207,198967.29999998212,199064.954,199064.954,202851.79999998212,203082.5,2024-07-31T14:53:57.282Z,203176.3,TYqkLYL0P8,incremental,anketa,6645cf40bc81b65c5faccf1d,participant,hcpib7dulz9yqhc1,,,mousedown,,"Tko se nadaš da će napraviti prezentaciju, a Đure nacrtati sliku??","Nadaš se da će Vesna napraviti prezentaciju, a Đure nacrtati sliku..",csi,42,44,2,,,
,Sequence,flow.Sequence,2_4,,,,,,completion,13562.699999982113,189244.40000000596,189284.828,189289.1,202851.79999998212,203085,2024-07-31T14:53:57.285Z,203176.3,TYqkLYL0P8,incremental,anketa,6645cf40bc81b65c5faccf1d,participant,hcpib7dulz9yqhc1,,,,,"Tko se nadaš da će napraviti prezentaciju, a Đure nacrtati sliku??","Nadaš se da će Vesna napraviti prezentaciju, a Đure nacrtati sliku..",csi,42,44,2,,,
,context,canvas.Screen,2_5_0_0,,,,,,response,2277.799999994051,203087.29999998212,203164.79,203176.3,205454.09999999404,205667,2024-07-31T14:53:59.867Z,205766.2,TYqkLYL0P8,incremental,anketa,6645cf40bc81b65c5faccf1d,participant,hcpib7dulz9yqhc1,,,click,,Komu tužno je gledati da ljudi i dalje daju novac??,Tužno je gledati da ljudi i dalje daju novac šarlatanima..,si,38,33,19,,,
,Timer frame,html.Frame,2_5_0,,,,,,,2491.7000000000116,203086.09999999404,203164.79,203176.3,205668,205668.79999998212,2024-07-31T14:53:59.869Z,205766.2,TYqkLYL0P8,incremental,anketa,6645cf40bc81b65c5faccf1d,participant,hcpib7dulz9yqhc1,,,,,Komu tužno je gledati da ljudi i dalje daju novac??,Tužno je gledati da ljudi i dalje daju novac šarlatanima..,si,38,33,19,,,
,stimulus,canvas.Screen,2_5_1_0,,,,,,response,2374.099999982107,205670.40000000596,205752.726,205766.2,208140.29999998212,208386.69999998808,2024-07-31T14:54:02.587Z,208487.5,TYqkLYL0P8,incremental,anketa,6645cf40bc81b65c5faccf1d,participant,hcpib7dulz9yqhc1,,1,click @1,,Komu tužno je gledati da ljudi i dalje daju novac??,Tužno je gledati da ljudi i dalje daju novac šarlatanima..,si,38,33,19,,,
,Timer frame,html.Frame,2_5_1,,,,,,,2621.7999999999884,205669.40000000596,205752.726,205766.2,208388,208388.79999998212,2024-07-31T14:54:02.589Z,208487.5,TYqkLYL0P8,incremental,anketa,6645cf40bc81b65c5faccf1d,participant,hcpib7dulz9yqhc1,,,,,Komu tužno je gledati da ljudi i dalje daju novac??,Tužno je gledati da ljudi i dalje daju novac šarlatanima..,si,38,33,19,,,
,Spremanje,canvas.Screen,2_5_2,,,,,,skipped,,208389.5,,,208388,208390,2024-07-31T14:54:02.590Z,208487.5,TYqkLYL0P8,incremental,anketa,6645cf40bc81b65c5faccf1d,participant,hcpib7dulz9yqhc1,,,,,Komu tužno je gledati da ljudi i dalje daju novac??,Tužno je gledati da ljudi i dalje daju novac šarlatanima..,si,38,33,19,,,
,Question form,html.Form,2_5_3,,,,,,skipped,,208390.5,,,208388,208391.40000000596,2024-07-31T14:54:02.591Z,208487.5,TYqkLYL0P8,incremental,anketa,6645cf40bc81b65c5faccf1d,participant,hcpib7dulz9yqhc1,,,,,Komu tužno je gledati da ljudi i dalje daju novac??,Tužno je gledati da ljudi i dalje daju novac šarlatanima..,si,38,33,19,,,
,Answer indication,canvas.Screen,2_5_4,,,,,,skipped,,208399.40000000596,,,208388,208400.29999998212,2024-07-31T14:54:02.600Z,208487.5,TYqkLYL0P8,incremental,anketa,6645cf40bc81b65c5faccf1d,participant,hcpib7dulz9yqhc1,,,,,Komu tužno je gledati da ljudi i dalje daju novac??,Tužno je gledati da ljudi i dalje daju novac šarlatanima..,si,38,33,19,,,
,inter-stimulus,canvas.Screen,2_5_5,,,,,,response,1324.199999988079,208401,208472.796,208487.5,209811.69999998808,210026.29999998212,2024-07-31T14:54:04.226Z,210160.2,TYqkLYL0P8,incremental,anketa,6645cf40bc81b65c5faccf1d,participant,hcpib7dulz9yqhc1,,,mousedown,,Komu tužno je gledati da ljudi i dalje daju novac??,Tužno je gledati da ljudi i dalje daju novac šarlatanima..,si,38,33,19,,,
,Sequence,flow.Sequence,2_5,,,,,,completion,6635.399999988091,203085.79999998212,203164.79,203176.3,209811.69999998808,210028.09999999404,2024-07-31T14:54:04.228Z,210160.2,TYqkLYL0P8,incremental,anketa,6645cf40bc81b65c5faccf1d,participant,hcpib7dulz9yqhc1,,,,,Komu tužno je gledati da ljudi i dalje daju novac??,Tužno je gledati da ljudi i dalje daju novac šarlatanima..,si,38,33,19,,,
,context,canvas.Screen,2_6_0_0,,,,,,response,1815.899999994028,210030,210154.1,210160.2,211976.09999999404,212183.59999999404,2024-07-31T14:54:06.383Z,212274,TYqkLYL0P8,incremental,anketa,6645cf40bc81b65c5faccf1d,participant,hcpib7dulz9yqhc1,,,click,,Vjerojatno je tu lijepa nekad bila crkva.,Vjerojatno je tu nekad bila lijepa crkva.,lbc,,,36,,,
,Timer frame,html.Frame,2_6_0,,,,,,,2024.7000000059488,210029,210154.1,210160.2,212184.90000000596,212185.69999998808,2024-07-31T14:54:06.385Z,212274,TYqkLYL0P8,incremental,anketa,6645cf40bc81b65c5faccf1d,participant,hcpib7dulz9yqhc1,,,,,Vjerojatno je tu lijepa nekad bila crkva.,Vjerojatno je tu nekad bila lijepa crkva.,lbc,,,36,,,
,stimulus,canvas.Screen,2_6_1_0,,,,,,response,4265.5,212187.5,212259.828,212274,216539.5,216790.5,2024-07-31T14:54:10.990Z,216928.6,TYqkLYL0P8,incremental,anketa,6645cf40bc81b65c5faccf1d,participant,hcpib7dulz9yqhc1,,4,click @4,,Vjerojatno je tu lijepa nekad bila crkva.,Vjerojatno je tu nekad bila lijepa crkva.,lbc,,,36,,,
,Timer frame,html.Frame,2_6_1,,,,,,,4517.799999982119,212186.40000000596,212259.828,212274,216791.79999998212,216792.59999999404,2024-07-31T14:54:10.992Z,216928.6,TYqkLYL0P8,incremental,anketa,6645cf40bc81b65c5faccf1d,participant,hcpib7dulz9yqhc1,,,,,Vjerojatno je tu lijepa nekad bila crkva.,Vjerojatno je tu nekad bila lijepa crkva.,lbc,,,36,,,
,Spremanje,canvas.Screen,2_6_2,,,,,,skipped,,216793.19999998808,,,216791.79999998212,216793.79999998212,2024-07-31T14:54:10.994Z,216928.6,TYqkLYL0P8,incremental,anketa,6645cf40bc81b65c5faccf1d,participant,hcpib7dulz9yqhc1,,,,,Vjerojatno je tu lijepa nekad bila crkva.,Vjerojatno je tu nekad bila lijepa crkva.,lbc,,,36,,,
,Question form,html.Form,2_6_3,,,,,,skipped,,216794.40000000596,,,216791.79999998212,216795,2024-07-31T14:54:10.995Z,216928.6,TYqkLYL0P8,incremental,anketa,6645cf40bc81b65c5faccf1d,participant,hcpib7dulz9yqhc1,,,,,Vjerojatno je tu lijepa nekad bila crkva.,Vjerojatno je tu nekad bila lijepa crkva.,lbc,,,36,,,
,Answer indication,canvas.Screen,2_6_4,,,,,,skipped,,216800.90000000596,,,216791.79999998212,216802.19999998808,2024-07-31T14:54:11.002Z,216928.6,TYqkLYL0P8,incremental,anketa,6645cf40bc81b65c5faccf1d,participant,hcpib7dulz9yqhc1,,,,,Vjerojatno je tu lijepa nekad bila crkva.,Vjerojatno je tu nekad bila lijepa crkva.,lbc,,,36,,,
,inter-stimulus,canvas.Screen,2_6_5,,,,,,response,1281.8000000059546,216803.09999999404,216882.892,216928.6,218210.40000000596,218437.09999999404,2024-07-31T14:54:12.637Z,218518,TYqkLYL0P8,incremental,anketa,6645cf40bc81b65c5faccf1d,participant,hcpib7dulz9yqhc1,,,mousedown,,Vjerojatno je tu lijepa nekad bila crkva.,Vjerojatno je tu nekad bila lijepa crkva.,lbc,,,36,,,
,Sequence,flow.Sequence,2_6,,,,,,completion,8050.200000005949,210028.69999998808,210154.1,210160.2,218210.40000000596,218439.29999998212,2024-07-31T14:54:12.639Z,218518,TYqkLYL0P8,incremental,anketa,6645cf40bc81b65c5faccf1d,participant,hcpib7dulz9yqhc1,,,,,Vjerojatno je tu lijepa nekad bila crkva.,Vjerojatno je tu nekad bila lijepa crkva.,lbc,,,36,,,
,context,canvas.Screen,2_7_0_0,,,,,,response,2412.4000000059605,218441.79999998212,218511.87,218518,220930.40000000596,221157.5,2024-07-31T14:54:15.357Z,221288.6,TYqkLYL0P8,incremental,anketa,6645cf40bc81b65c5faccf1d,participant,hcpib7dulz9yqhc1,,,click,,"Kamo da ne odeš gladan, doručkovao si?",Doručkovao si da ne odeš gladan u planine.,ai,,,21,,,
,Timer frame,html.Frame,2_7_0,,,,,,,2640.4000000059605,218440.40000000596,218511.87,218518,221158.40000000596,221159.19999998808,2024-07-31T14:54:15.359Z,221288.6,TYqkLYL0P8,incremental,anketa,6645cf40bc81b65c5faccf1d,participant,hcpib7dulz9yqhc1,,,,,"Kamo da ne odeš gladan, doručkovao si?",Doručkovao si da ne odeš gladan u planine.,ai,,,21,,,
,stimulus,canvas.Screen,2_7_1_0,,,,,,response,3110.8000000059546,221160.90000000596,221241.462,221288.6,224399.40000000596,224635.19999998808,2024-07-31T14:54:18.835Z,224731.1,TYqkLYL0P8,incremental,anketa,6645cf40bc81b65c5faccf1d,participant,hcpib7dulz9yqhc1,,1,click @1,,"Kamo da ne odeš gladan, doručkovao si?",Doručkovao si da ne odeš gladan u planine.,ai,,,21,,,
,Timer frame,html.Frame,2_7_1,,,,,,,3347.8000000059546,221159.79999998212,221241.462,221288.6,224636.40000000596,224637.29999998212,2024-07-31T14:54:18.837Z,224731.1,TYqkLYL0P8,incremental,anketa,6645cf40bc81b65c5faccf1d,participant,hcpib7dulz9yqhc1,,,,,"Kamo da ne odeš gladan, doručkovao si?",Doručkovao si da ne odeš gladan u planine.,ai,,,21,,,
,Spremanje,canvas.Screen,2_7_2,,,,,,skipped,,224637.90000000596,,,224636.40000000596,224638.40000000596,2024-07-31T14:54:18.838Z,224731.1,TYqkLYL0P8,incremental,anketa,6645cf40bc81b65c5faccf1d,participant,hcpib7dulz9yqhc1,,,,,"Kamo da ne odeš gladan, doručkovao si?",Doručkovao si da ne odeš gladan u planine.,ai,,,21,,,
,Question form,html.Form,2_7_3,,,,,,skipped,,224639,,,224636.40000000596,224639.59999999404,2024-07-31T14:54:18.839Z,224731.1,TYqkLYL0P8,incremental,anketa,6645cf40bc81b65c5faccf1d,participant,hcpib7dulz9yqhc1,,,,,"Kamo da ne odeš gladan, doručkovao si?",Doručkovao si da ne odeš gladan u planine.,ai,,,21,,,
,Answer indication,canvas.Screen,2_7_4,,,,,,skipped,,224647.19999998808,,,224636.40000000596,224647.90000000596,2024-07-31T14:54:18.848Z,224731.1,TYqkLYL0P8,incremental,anketa,6645cf40bc81b65c5faccf1d,participant,hcpib7dulz9yqhc1,,,,,"Kamo da ne odeš gladan, doručkovao si?",Doručkovao si da ne odeš gladan u planine.,ai,,,21,,,
,inter-stimulus,canvas.Screen,2_7_5,,,,,,response,2079.3000000059546,224648.69999998808,224717.56,224731.1,226810.40000000596,227070.79999998212,2024-07-31T14:54:21.271Z,227156.7,TYqkLYL0P8,incremental,anketa,6645cf40bc81b65c5faccf1d,participant,hcpib7dulz9yqhc1,,,mousedown,,"Kamo da ne odeš gladan, doručkovao si?",Doručkovao si da ne odeš gladan u planine.,ai,,,21,,,
,Sequence,flow.Sequence,2_7,,,,,,completion,8292.40000000596,218440.19999998808,218511.87,218518,226810.40000000596,227072,2024-07-31T14:54:21.272Z,227156.7,TYqkLYL0P8,incremental,anketa,6645cf40bc81b65c5faccf1d,participant,hcpib7dulz9yqhc1,,,,,"Kamo da ne odeš gladan, doručkovao si?",Doručkovao si da ne odeš gladan u planine.,ai,,,21,,,
,context,canvas.Screen,2_8_0_0,,,,,,response,2687.399999994028,227073.5,227131.004,227156.7,229844.09999999404,230074.69999998808,2024-07-31T14:54:24.275Z,230161.8,TYqkLYL0P8,incremental,anketa,6645cf40bc81b65c5faccf1d,participant,hcpib7dulz9yqhc1,,,click,,Tko je jučer susjedu ukrao kobasicu?,Jučer je riđa mačka susjedu ukrala kobasicu.,gf,,,50,KOBASICU; KOBASICA,Što je ukrala mačka?,
,Timer frame,html.Frame,2_8_0,,,,,,,2919.200000005949,227072.5,227131.004,227156.7,230075.90000000596,230076.90000000596,2024-07-31T14:54:24.277Z,230161.8,TYqkLYL0P8,incremental,anketa,6645cf40bc81b65c5faccf1d,participant,hcpib7dulz9yqhc1,,,,,Tko je jučer susjedu ukrao kobasicu?,Jučer je riđa mačka susjedu ukrala kobasicu.,gf,,,50,KOBASICU; KOBASICA,Što je ukrala mačka?,
,stimulus,canvas.Screen,2_8_1_0,,,,,,response,2532.3999999880907,230078.79999998212,230146.962,230161.8,232694.19999998808,232937.40000000596,2024-07-31T14:54:27.137Z,233064.7,TYqkLYL0P8,incremental,anketa,6645cf40bc81b65c5faccf1d,participant,hcpib7dulz9yqhc1,,7,click @7,,Tko je jučer susjedu ukrao kobasicu?,Jučer je riđa mačka susjedu ukrala kobasicu.,gf,,,50,KOBASICU; KOBASICA,Što je ukrala mačka?,
,Timer frame,html.Frame,2_8_1,,,,,,,2776.3999999880907,230077.69999998808,230146.962,230161.8,232938.19999998808,232939,2024-07-31T14:54:27.139Z,233064.7,TYqkLYL0P8,incremental,anketa,6645cf40bc81b65c5faccf1d,participant,hcpib7dulz9yqhc1,,,,,Tko je jučer susjedu ukrao kobasicu?,Jučer je riđa mačka susjedu ukrala kobasicu.,gf,,,50,KOBASICU; KOBASICA,Što je ukrala mačka?,
,Spremanje,canvas.Screen,2_8_2,,,,,,response,1797.899999994028,232939.5,233050.726,233064.7,234862.59999999404,235095.5,2024-07-31T14:54:29.295Z,235122.4,TYqkLYL0P8,incremental,anketa,6645cf40bc81b65c5faccf1d,participant,hcpib7dulz9yqhc1,,,mousedown,,Tko je jučer susjedu ukrao kobasicu?,Jučer je riđa mačka susjedu ukrala kobasicu.,gf,,,50,KOBASICU; KOBASICA,Što je ukrala mačka?,
,Question form,html.Form,2_8_3,,,,,,form submission,5680.199999994045,235097.19999998808,235114.618,235122.4,240802.59999999404,240803.59999999404,2024-07-31T14:54:35.004Z,240893.3,TYqkLYL0P8,incremental,anketa,6645cf40bc81b65c5faccf1d,participant,hcpib7dulz9yqhc1,,,,Kobasicu,Tko je jučer susjedu ukrao kobasicu?,Jučer je riđa mačka susjedu ukrala kobasicu.,gf,,,50,KOBASICU; KOBASICA,Što je ukrala mačka?,
,Answer indication,canvas.Screen,2_8_4,,,,,,response,1044.7999999940512,240812.29999998212,240866.62,240893.3,241938.09999999404,242188.69999998808,2024-07-31T14:54:36.388Z,242336.4,TYqkLYL0P8,incremental,anketa,6645cf40bc81b65c5faccf1d,participant,hcpib7dulz9yqhc1,,,mousedown,,Tko je jučer susjedu ukrao kobasicu?,Jučer je riđa mačka susjedu ukrala kobasicu.,gf,,,50,KOBASICU; KOBASICA,Što je ukrala mačka?,
,inter-stimulus,canvas.Screen,2_8_5,,,,,,response,1018.2999999880849,242189.29999998212,242326.576,242336.4,243354.69999998808,243615.90000000596,2024-07-31T14:54:37.816Z,243664.5,TYqkLYL0P8,incremental,anketa,6645cf40bc81b65c5faccf1d,participant,hcpib7dulz9yqhc1,,,mousedown,,Tko je jučer susjedu ukrao kobasicu?,Jučer je riđa mačka susjedu ukrala kobasicu.,gf,,,50,KOBASICU; KOBASICA,Što je ukrala mačka?,
,Sequence,flow.Sequence,2_8,,,,,,completion,16197.999999988067,227072.29999998212,227131.004,227156.7,243354.69999998808,243616.69999998808,2024-07-31T14:54:37.817Z,243664.5,TYqkLYL0P8,incremental,anketa,6645cf40bc81b65c5faccf1d,participant,hcpib7dulz9yqhc1,,,,,Tko je jučer susjedu ukrao kobasicu?,Jučer je riđa mačka susjedu ukrala kobasicu.,gf,,,50,KOBASICU; KOBASICA,Što je ukrala mačka?,
,context,canvas.Screen,2_9_0_0,,,,,,response,3122.2999999821186,243617.5,243653.014,243664.5,246786.79999998212,247032.09999999404,2024-07-31T14:54:41.232Z,247157.1,TYqkLYL0P8,incremental,anketa,6645cf40bc81b65c5faccf1d,participant,hcpib7dulz9yqhc1,,,click,,Petar i Mara su jučer otišli u kino pogledati dobru komediju..,Jučer su Petar i Mara otišli u kino pogledati dobru komediju..,gf,35,35,46,,,
,Timer frame,html.Frame,2_9_0,,,,,,,3368,243617.19999998808,243653.014,243664.5,247032.5,247032.90000000596,2024-07-31T14:54:41.233Z,247157.1,TYqkLYL0P8,incremental,anketa,6645cf40bc81b65c5faccf1d,participant,hcpib7dulz9yqhc1,,,,,Petar i Mara su jučer otišli u kino pogledati dobru komediju..,Jučer su Petar i Mara otišli u kino pogledati dobru komediju..,gf,35,35,46,,,
,stimulus,canvas.Screen,2_9_1_0,,,,,,response,4281.300000005955,247033.90000000596,247143.46,247157.1,251438.40000000596,251738.09999999404,2024-07-31T14:54:45.938Z,251829.7,TYqkLYL0P8,incremental,anketa,6645cf40bc81b65c5faccf1d,participant,hcpib7dulz9yqhc1,,7,click @7,,Petar i Mara su jučer otišli u kino pogledati dobru komediju..,Jučer su Petar i Mara otišli u kino pogledati dobru komediju..,gf,35,35,46,,,
,Timer frame,html.Frame,2_9_1,,,,,,,4582.099999988073,247033.29999998212,247143.46,247157.1,251739.19999998808,251739.90000000596,2024-07-31T14:54:45.940Z,251829.7,TYqkLYL0P8,incremental,anketa,6645cf40bc81b65c5faccf1d,participant,hcpib7dulz9yqhc1,,,,,Petar i Mara su jučer otišli u kino pogledati dobru komediju..,Jučer su Petar i Mara otišli u kino pogledati dobru komediju..,gf,35,35,46,,,
,Spremanje,canvas.Screen,2_9_2,,,,,,skipped,,251740.5,,,251739.19999998808,251741.09999999404,2024-07-31T14:54:45.941Z,251829.7,TYqkLYL0P8,incremental,anketa,6645cf40bc81b65c5faccf1d,participant,hcpib7dulz9yqhc1,,,,,Petar i Mara su jučer otišli u kino pogledati dobru komediju..,Jučer su Petar i Mara otišli u kino pogledati dobru komediju..,gf,35,35,46,,,
,Question form,html.Form,2_9_3,,,,,,skipped,,251742.09999999404,,,251739.19999998808,251742.59999999404,2024-07-31T14:54:45.943Z,251829.7,TYqkLYL0P8,incremental,anketa,6645cf40bc81b65c5faccf1d,participant,hcpib7dulz9yqhc1,,,,,Petar i Mara su jučer otišli u kino pogledati dobru komediju..,Jučer su Petar i Mara otišli u kino pogledati dobru komediju..,gf,35,35,46,,,
,Answer indication,canvas.Screen,2_9_4,,,,,,skipped,,251750.09999999404,,,251739.19999998808,251751.40000000596,2024-07-31T14:54:45.951Z,251829.7,TYqkLYL0P8,incremental,anketa,6645cf40bc81b65c5faccf1d,participant,hcpib7dulz9yqhc1,,,,,Petar i Mara su jučer otišli u kino pogledati dobru komediju..,Jučer su Petar i Mara otišli u kino pogledati dobru komediju..,gf,35,35,46,,,
,inter-stimulus,canvas.Screen,2_9_5,,,,,,response,1605.9999999880674,251752.29999998212,251816.06,251829.7,253435.69999998808,253658.5,2024-07-31T14:54:47.858Z,253731.5,TYqkLYL0P8,incremental,anketa,6645cf40bc81b65c5faccf1d,participant,hcpib7dulz9yqhc1,,,mousedown,,Petar i Mara su jučer otišli u kino pogledati dobru komediju..,Jučer su Petar i Mara otišli u kino pogledati dobru komediju..,gf,35,35,46,,,
,Sequence,flow.Sequence,2_9,,,,,,completion,9771.199999988079,243617,243653.014,243664.5,253435.69999998808,253659.69999998808,2024-07-31T14:54:47.859Z,253731.5,TYqkLYL0P8,incremental,anketa,6645cf40bc81b65c5faccf1d,participant,hcpib7dulz9yqhc1,,,,,Petar i Mara su jučer otišli u kino pogledati dobru komediju..,Jučer su Petar i Mara otišli u kino pogledati dobru komediju..,gf,35,35,46,,,
,context,canvas.Screen,2_10_0_0,,,,,,response,2236.199999988079,253661,253729.624,253731.5,255967.69999998808,256184.09999999404,2024-07-31T14:54:50.384Z,256273.3,TYqkLYL0P8,incremental,anketa,6645cf40bc81b65c5faccf1d,participant,hcpib7dulz9yqhc1,,,click,,Vidimo plažu daleko od koje smo bili.,Vidimo plažu od koje smo bili daleko.,ai,,,24,,,
,Timer frame,html.Frame,2_10_0,,,,,,,2453.9000000059605,253660.29999998212,253729.624,253731.5,256185.40000000596,256186.40000000596,2024-07-31T14:54:50.386Z,256273.3,TYqkLYL0P8,incremental,anketa,6645cf40bc81b65c5faccf1d,participant,hcpib7dulz9yqhc1,,,,,Vidimo plažu daleko od koje smo bili.,Vidimo plažu od koje smo bili daleko.,ai,,,24,,,
,stimulus,canvas.Screen,2_10_1_0,,,,,,response,2418.9999999821302,256188.90000000596,256258.862,256273.3,258692.29999998212,258918.59999999404,2024-07-31T14:54:53.118Z,259044.2,TYqkLYL0P8,incremental,anketa,6645cf40bc81b65c5faccf1d,participant,hcpib7dulz9yqhc1,,1,click @1,,Vidimo plažu daleko od koje smo bili.,Vidimo plažu od koje smo bili daleko.,ai,,,24,,,
,Timer frame,html.Frame,2_10_1,,,,,,,2646.2000000000116,256187.69999998808,256258.862,256273.3,258919.5,258920.40000000596,2024-07-31T14:54:53.120Z,259044.2,TYqkLYL0P8,incremental,anketa,6645cf40bc81b65c5faccf1d,participant,hcpib7dulz9yqhc1,,,,,Vidimo plažu daleko od koje smo bili.,Vidimo plažu od koje smo bili daleko.,ai,,,24,,,
,Spremanje,canvas.Screen,2_10_2,,,,,,skipped,,258921,,,258919.5,258921.79999998212,2024-07-31T14:54:53.122Z,259044.2,TYqkLYL0P8,incremental,anketa,6645cf40bc81b65c5faccf1d,participant,hcpib7dulz9yqhc1,,,,,Vidimo plažu daleko od koje smo bili.,Vidimo plažu od koje smo bili daleko.,ai,,,24,,,
,Question form,html.Form,2_10_3,,,,,,skipped,,258922.69999998808,,,258919.5,258923.5,2024-07-31T14:54:53.123Z,259044.2,TYqkLYL0P8,incremental,anketa,6645cf40bc81b65c5faccf1d,participant,hcpib7dulz9yqhc1,,,,,Vidimo plažu daleko od koje smo bili.,Vidimo plažu od koje smo bili daleko.,ai,,,24,,,
,Answer indication,canvas.Screen,2_10_4,,,,,,skipped,,258930.19999998808,,,258919.5,258931.09999999404,2024-07-31T14:54:53.131Z,259044.2,TYqkLYL0P8,incremental,anketa,6645cf40bc81b65c5faccf1d,participant,hcpib7dulz9yqhc1,,,,,Vidimo plažu daleko od koje smo bili.,Vidimo plažu od koje smo bili daleko.,ai,,,24,,,
,inter-stimulus,canvas.Screen,2_10_5,,,,,,response,3065.9999999880674,258932.40000000596,259030.294,259044.2,262110.19999998808,262348.59999999404,2024-07-31T14:54:56.548Z,262437.7,TYqkLYL0P8,incremental,anketa,6645cf40bc81b65c5faccf1d,participant,hcpib7dulz9yqhc1,,,mousedown,,Vidimo plažu daleko od koje smo bili.,Vidimo plažu od koje smo bili daleko.,ai,,,24,,,
,Sequence,flow.Sequence,2_10,,,,,,completion,8378.699999988079,253660,253729.624,253731.5,262110.19999998808,262350.5,2024-07-31T14:54:56.550Z,262437.7,TYqkLYL0P8,incremental,anketa,6645cf40bc81b65c5faccf1d,participant,hcpib7dulz9yqhc1,,,,,Vidimo plažu daleko od koje smo bili.,Vidimo plažu od koje smo bili daleko.,ai,,,24,,,
,context,canvas.Screen,2_11_0_0,,,,,,response,3862.899999994028,262352.6999999881,262427.398,262437.7,266300.59999999404,266530.5,2024-07-31T14:55:00.730Z,266667,TYqkLYL0P8,incremental,anketa,6645cf40bc81b65c5faccf1d,participant,hcpib7dulz9yqhc1,,,click,,Na što je teško prestati besmisleno bacati novac?,Teško je prestati besmisleno bacati novac na tenisice.,si,,,13,,,
,Timer frame,html.Frame,2_11_0,,,,,,,4094.700000005949,262351.7999999821,262427.398,262437.7,266532.40000000596,266533.2999999821,2024-07-31T14:55:00.733Z,266667,TYqkLYL0P8,incremental,anketa,6645cf40bc81b65c5faccf1d,participant,hcpib7dulz9yqhc1,,,,,Na što je teško prestati besmisleno bacati novac?,Teško je prestati besmisleno bacati novac na tenisice.,si,,,13,,,
,stimulus,canvas.Screen,2_11_1_0,,,,,,response,3603.4000000059605,266534.7999999821,266653.958,266667,270270.40000000596,270508.90000000596,2024-07-31T14:55:04.709Z,270604.06,TYqkLYL0P8,incremental,anketa,6645cf40bc81b65c5faccf1d,participant,hcpib7dulz9yqhc1,,6,click @6,,Na što je teško prestati besmisleno bacati novac?,Teško je prestati besmisleno bacati novac na tenisice.,si,,,13,,,
,Timer frame,html.Frame,2_11_1,,,,,,,3843,266533.90000000596,266653.958,266667,270510,270510.6999999881,2024-07-31T14:55:04.711Z,270604.06,TYqkLYL0P8,incremental,anketa,6645cf40bc81b65c5faccf1d,participant,hcpib7dulz9yqhc1,,,,,Na što je teško prestati besmisleno bacati novac?,Teško je prestati besmisleno bacati novac na tenisice.,si,,,13,,,
,Spremanje,canvas.Screen,2_11_2,,,,,,skipped,,270511.59999999404,,,270510,270512,2024-07-31T14:55:04.712Z,270604.06,TYqkLYL0P8,incremental,anketa,6645cf40bc81b65c5faccf1d,participant,hcpib7dulz9yqhc1,,,,,Na što je teško prestati besmisleno bacati novac?,Teško je prestati besmisleno bacati novac na tenisice.,si,,,13,,,
,Question form,html.Form,2_11_3,,,,,,skipped,,270512.59999999404,,,270510,270513.09999999404,2024-07-31T14:55:04.713Z,270604.06,TYqkLYL0P8,incremental,anketa,6645cf40bc81b65c5faccf1d,participant,hcpib7dulz9yqhc1,,,,,Na što je teško prestati besmisleno bacati novac?,Teško je prestati besmisleno bacati novac na tenisice.,si,,,13,,,
,Answer indication,canvas.Screen,2_11_4,,,,,,skipped,,270520.1999999881,,,270510,270521,2024-07-31T14:55:04.721Z,270604.06,TYqkLYL0P8,incremental,anketa,6645cf40bc81b65c5faccf1d,participant,hcpib7dulz9yqhc1,,,,,Na što je teško prestati besmisleno bacati novac?,Teško je prestati besmisleno bacati novac na tenisice.,si,,,13,,,
,inter-stimulus,canvas.Screen,2_11_5,,,,,,response,1346.1399999880814,270522,270604.06,270604.06,271950.1999999881,272182.2999999821,2024-07-31T14:55:06.382Z,272273.5,TYqkLYL0P8,incremental,anketa,6645cf40bc81b65c5faccf1d,participant,hcpib7dulz9yqhc1,,,mousedown,,Na što je teško prestati besmisleno bacati novac?,Teško je prestati besmisleno bacati novac na tenisice.,si,,,13,,,
,Sequence,flow.Sequence,2_11,,,,,,completion,9512.499999988067,262351.40000000596,262427.398,262437.7,271950.1999999881,272184,2024-07-31T14:55:06.384Z,272273.5,TYqkLYL0P8,incremental,anketa,6645cf40bc81b65c5faccf1d,participant,hcpib7dulz9yqhc1,,,,,Na što je teško prestati besmisleno bacati novac?,Teško je prestati besmisleno bacati novac na tenisice.,si,,,13,,,
,context,canvas.Screen,2_12_0_0,,,,,,response,1920.0999999940395,272185.90000000596,272270.66,272273.5,274193.59999999404,274409.1999999881,2024-07-31T14:55:08.609Z,274502.7,TYqkLYL0P8,incremental,anketa,6645cf40bc81b65c5faccf1d,participant,hcpib7dulz9yqhc1,,,click,,Ove godine su se Viktor i Marta vjenčao.,Victor i Marta vjenčali su se ove godine.,nf,,,38,,,
,Timer frame,html.Frame,2_12_0,,,,,,,2137,272184.7999999821,272270.66,272273.5,274410.5,274412.09999999404,2024-07-31T14:55:08.612Z,274502.7,TYqkLYL0P8,incremental,anketa,6645cf40bc81b65c5faccf1d,participant,hcpib7dulz9yqhc1,,,,,Ove godine su se Viktor i Marta vjenčao.,Victor i Marta vjenčali su se ove godine.,nf,,,38,,,
,stimulus,canvas.Screen,2_12_1_0,,,,,,response,3540.7999999999884,274414.1999999881,274489.858,274502.7,278043.5,278275.09999999404,2024-07-31T14:55:12.475Z,278371.7,TYqkLYL0P8,incremental,anketa,6645cf40bc81b65c5faccf1d,participant,hcpib7dulz9yqhc1,,6,click @6,,Ove godine su se Viktor i Marta vjenčao.,Victor i Marta vjenčali su se ove godine.,nf,,,38,,,
,Timer frame,html.Frame,2_12_1,,,,,,,3773.399999994028,274413.09999999404,274489.858,274502.7,278276.09999999404,278276.7999999821,2024-07-31T14:55:12.477Z,278371.7,TYqkLYL0P8,incremental,anketa,6645cf40bc81b65c5faccf1d,participant,hcpib7dulz9yqhc1,,,,,Ove godine su se Viktor i Marta vjenčao.,Victor i Marta vjenčali su se ove godine.,nf,,,38,,,
,Spremanje,canvas.Screen,2_12_2,,,,,,skipped,,278277.5,,,278276.09999999404,278277.90000000596,2024-07-31T14:55:12.478Z,278371.7,TYqkLYL0P8,incremental,anketa,6645cf40bc81b65c5faccf1d,participant,hcpib7dulz9yqhc1,,,,,Ove godine su se Viktor i Marta vjenčao.,Victor i Marta vjenčali su se ove godine.,nf,,,38,,,
,Question form,html.Form,2_12_3,,,,,,skipped,,278278.5,,,278276.09999999404,278279.1999999881,2024-07-31T14:55:12.479Z,278371.7,TYqkLYL0P8,incremental,anketa,6645cf40bc81b65c5faccf1d,participant,hcpib7dulz9yqhc1,,,,,Ove godine su se Viktor i Marta vjenčao.,Victor i Marta vjenčali su se ove godine.,nf,,,38,,,
,Answer indication,canvas.Screen,2_12_4,,,,,,skipped,,278286.2999999821,,,278276.09999999404,278287.09999999404,2024-07-31T14:55:12.487Z,278371.7,TYqkLYL0P8,incremental,anketa,6645cf40bc81b65c5faccf1d,participant,hcpib7dulz9yqhc1,,,,,Ove godine su se Viktor i Marta vjenčao.,Victor i Marta vjenčali su se ove godine.,nf,,,38,,,
,inter-stimulus,canvas.Screen,2_12_5,,,,,,response,1794.2000000059488,278287.6999999881,278357.694,278371.7,280165.90000000596,280381.90000000596,2024-07-31T14:55:14.582Z,280470.2,TYqkLYL0P8,incremental,anketa,6645cf40bc81b65c5faccf1d,participant,hcpib7dulz9yqhc1,,,mousedown,,Ove godine su se Viktor i Marta vjenčao.,Victor i Marta vjenčali su se ove godine.,nf,,,38,,,
,Sequence,flow.Sequence,2_12,,,,,,completion,7892.4000000059605,272184.59999999404,272270.66,272273.5,280165.90000000596,280384,2024-07-31T14:55:14.584Z,280470.2,TYqkLYL0P8,incremental,anketa,6645cf40bc81b65c5faccf1d,participant,hcpib7dulz9yqhc1,,,,,Ove godine su se Viktor i Marta vjenčao.,Victor i Marta vjenčali su se ove godine.,nf,,,38,,,
,context,canvas.Screen,2_13_0_0,,,,,,response,3284.700000005949,280386,280454.95,280470.2,283754.90000000596,283983.2999999821,2024-07-31T14:55:18.183Z,284093.2,TYqkLYL0P8,incremental,anketa,6645cf40bc81b65c5faccf1d,participant,hcpib7dulz9yqhc1,,,click,,"Oni su se svađali navečer, ali ujutro su sve pritužbe već bile zaboravljene..","Navečer su se svađali, ali ujutro su sve pritužbe već bile zaboravljene..",gf,44,40,48,,,
,Timer frame,html.Frame,2_13_0,,,,,,,3513.700000005949,280384.90000000596,280454.95,280470.2,283983.90000000596,283984.1999999881,2024-07-31T14:55:18.184Z,284093.2,TYqkLYL0P8,incremental,anketa,6645cf40bc81b65c5faccf1d,participant,hcpib7dulz9yqhc1,,,,,"Oni su se svađali navečer, ali ujutro su sve pritužbe već bile zaboravljene..","Navečer su se svađali, ali ujutro su sve pritužbe već bile zaboravljene..",gf,44,40,48,,,
,stimulus,canvas.Screen,2_13_1_0,,,,,,response,2865.599999982107,283985,284080.092,284093.2,286958.7999999821,287201,2024-07-31T14:55:21.401Z,287274,TYqkLYL0P8,incremental,anketa,6645cf40bc81b65c5faccf1d,participant,hcpib7dulz9yqhc1,,6,click @6,,"Oni su se svađali navečer, ali ujutro su sve pritužbe već bile zaboravljene..","Navečer su se svađali, ali ujutro su sve pritužbe već bile zaboravljene..",gf,44,40,48,,,
,Timer frame,html.Frame,2_13_1,,,,,,,3108.9999999880674,283984.5,284080.092,284093.2,287202.1999999881,287202.59999999404,2024-07-31T14:55:21.402Z,287274,TYqkLYL0P8,incremental,anketa,6645cf40bc81b65c5faccf1d,participant,hcpib7dulz9yqhc1,,,,,"Oni su se svađali navečer, ali ujutro su sve pritužbe već bile zaboravljene..","Navečer su se svađali, ali ujutro su sve pritužbe već bile zaboravljene..",gf,44,40,48,,,
,Spremanje,canvas.Screen,2_13_2,,,,,,skipped,,287202.90000000596,,,287202.1999999881,287203.09999999404,2024-07-31T14:55:21.403Z,287274,TYqkLYL0P8,incremental,anketa,6645cf40bc81b65c5faccf1d,participant,hcpib7dulz9yqhc1,,,,,"Oni su se svađali navečer, ali ujutro su sve pritužbe već bile zaboravljene..","Navečer su se svađali, ali ujutro su sve pritužbe već bile zaboravljene..",gf,44,40,48,,,
,Question form,html.Form,2_13_3,,,,,,skipped,,287203.40000000596,,,287202.1999999881,287203.7999999821,2024-07-31T14:55:21.404Z,287274,TYqkLYL0P8,incremental,anketa,6645cf40bc81b65c5faccf1d,participant,hcpib7dulz9yqhc1,,,,,"Oni su se svađali navečer, ali ujutro su sve pritužbe već bile zaboravljene..","Navečer su se svađali, ali ujutro su sve pritužbe već bile zaboravljene..",gf,44,40,48,,,
,Answer indication,canvas.Screen,2_13_4,,,,,,skipped,,287207.7999999821,,,287202.1999999881,287208.2999999821,2024-07-31T14:55:21.408Z,287274,TYqkLYL0P8,incremental,anketa,6645cf40bc81b65c5faccf1d,participant,hcpib7dulz9yqhc1,,,,,"Oni su se svađali navečer, ali ujutro su sve pritužbe već bile zaboravljene..","Navečer su se svađali, ali ujutro su sve pritužbe već bile zaboravljene..",gf,44,40,48,,,
,inter-stimulus,canvas.Screen,2_13_5,,,,,,response,1193.2999999821186,287208.6999999881,287260.792,287274,288467.2999999821,288696.6999999881,2024-07-31T14:55:22.897Z,288815.2,TYqkLYL0P8,incremental,anketa,6645cf40bc81b65c5faccf1d,participant,hcpib7dulz9yqhc1,,,mousedown,,"Oni su se svađali navečer, ali ujutro su sve pritužbe već bile zaboravljene..","Navečer su se svađali, ali ujutro su sve pritužbe već bile zaboravljene..",gf,44,40,48,,,
,Sequence,flow.Sequence,2_13,,,,,,completion,7997.099999982107,280384.6999999881,280454.95,280470.2,288467.2999999821,288699.40000000596,2024-07-31T14:55:22.899Z,288815.2,TYqkLYL0P8,incremental,anketa,6645cf40bc81b65c5faccf1d,participant,hcpib7dulz9yqhc1,,,,,"Oni su se svađali navečer, ali ujutro su sve pritužbe već bile zaboravljene..","Navečer su se svađali, ali ujutro su sve pritužbe već bile zaboravljene..",gf,44,40,48,,,
,context,canvas.Screen,2_14_0_0,,,,,,response,4036.700000005949,288701.7999999821,288790.606,288815.2,292851.90000000596,293076.7999999821,2024-07-31T14:55:27.277Z,293175.3,TYqkLYL0P8,incremental,anketa,6645cf40bc81b65c5faccf1d,participant,hcpib7dulz9yqhc1,,,click,,Tko strah me i zamisliti s kakvim će se ogorčenjem vratiti kući??,Strah me i zamisliti s kakvim će se ogorčenjem moj brat vratiti kući..,ai,24,20,29,,,
,Timer frame,html.Frame,2_14_0,,,,,,,4262.700000005949,288700.59999999404,288790.606,288815.2,293077.90000000596,293078.7999999821,2024-07-31T14:55:27.279Z,293175.3,TYqkLYL0P8,incremental,anketa,6645cf40bc81b65c5faccf1d,participant,hcpib7dulz9yqhc1,,,,,Tko strah me i zamisliti s kakvim će se ogorčenjem vratiti kući??,Strah me i zamisliti s kakvim će se ogorčenjem moj brat vratiti kući..,ai,24,20,29,,,
,stimulus,canvas.Screen,2_14_1_0,,,,,,response,2087.4999999821302,293080.59999999404,293144.894,293175.3,295262.7999999821,295489.40000000596,2024-07-31T14:55:29.689Z,295617.8,TYqkLYL0P8,incremental,anketa,6645cf40bc81b65c5faccf1d,participant,hcpib7dulz9yqhc1,,1,click @1,,Tko strah me i zamisliti s kakvim će se ogorčenjem vratiti kući??,Strah me i zamisliti s kakvim će se ogorčenjem moj brat vratiti kući..,ai,24,20,29,,,
,Timer frame,html.Frame,2_14_1,,,,,,,2314.9999999821302,293079.59999999404,293144.894,293175.3,295490.2999999821,295491,2024-07-31T14:55:29.691Z,295617.8,TYqkLYL0P8,incremental,anketa,6645cf40bc81b65c5faccf1d,participant,hcpib7dulz9yqhc1,,,,,Tko strah me i zamisliti s kakvim će se ogorčenjem vratiti kući??,Strah me i zamisliti s kakvim će se ogorčenjem moj brat vratiti kući..,ai,24,20,29,,,
,Spremanje,canvas.Screen,2_14_2,,,,,,skipped,,295492,,,295490.2999999821,295492.59999999404,2024-07-31T14:55:29.692Z,295617.8,TYqkLYL0P8,incremental,anketa,6645cf40bc81b65c5faccf1d,participant,hcpib7dulz9yqhc1,,,,,Tko strah me i zamisliti s kakvim će se ogorčenjem vratiti kući??,Strah me i zamisliti s kakvim će se ogorčenjem moj brat vratiti kući..,ai,24,20,29,,,
,Question form,html.Form,2_14_3,,,,,,skipped,,295493.1999999881,,,295490.2999999821,295493.7999999821,2024-07-31T14:55:29.694Z,295617.8,TYqkLYL0P8,incremental,anketa,6645cf40bc81b65c5faccf1d,participant,hcpib7dulz9yqhc1,,,,,Tko strah me i zamisliti s kakvim će se ogorčenjem vratiti kući??,Strah me i zamisliti s kakvim će se ogorčenjem moj brat vratiti kući..,ai,24,20,29,,,
,Answer indication,canvas.Screen,2_14_4,,,,,,skipped,,295499.40000000596,,,295490.2999999821,295500.2999999821,2024-07-31T14:55:29.700Z,295617.8,TYqkLYL0P8,incremental,anketa,6645cf40bc81b65c5faccf1d,participant,hcpib7dulz9yqhc1,,,,,Tko strah me i zamisliti s kakvim će se ogorčenjem vratiti kući??,Strah me i zamisliti s kakvim će se ogorčenjem moj brat vratiti kući..,ai,24,20,29,,,
,inter-stimulus,canvas.Screen,2_14_5,,,,,,response,1253.7999999940512,295500.90000000596,295603.528,295617.8,296871.59999999404,297110.59999999404,2024-07-31T14:55:31.310Z,297207.6,TYqkLYL0P8,incremental,anketa,6645cf40bc81b65c5faccf1d,participant,hcpib7dulz9yqhc1,,,mousedown,,Tko strah me i zamisliti s kakvim će se ogorčenjem vratiti kući??,Strah me i zamisliti s kakvim će se ogorčenjem moj brat vratiti kući..,ai,24,20,29,,,
,Sequence,flow.Sequence,2_14,,,,,,completion,8056.399999994028,288700.40000000596,288790.606,288815.2,296871.59999999404,297113.40000000596,2024-07-31T14:55:31.313Z,297207.6,TYqkLYL0P8,incremental,anketa,6645cf40bc81b65c5faccf1d,participant,hcpib7dulz9yqhc1,,,,,Tko strah me i zamisliti s kakvim će se ogorčenjem vratiti kući??,Strah me i zamisliti s kakvim će se ogorčenjem moj brat vratiti kući..,ai,24,20,29,,,
,context,canvas.Screen,2_15_0_0,,,,,,response,1778.0999999881024,297115.6999999881,297184.404,297207.6,298985.6999999881,299205.59999999404,2024-07-31T14:55:33.405Z,299323.3,TYqkLYL0P8,incremental,anketa,6645cf40bc81b65c5faccf1d,participant,hcpib7dulz9yqhc1,,,click,,"Kamo je djevojka razmišljala o slobode, idući?","Djevojka je razmišljala o slobode, idući do mora.",ai,,,23,,,
,Timer frame,html.Frame,2_15_0,,,,,,,1998.9000000000233,297114.59999999404,297184.404,297207.6,299206.5,299207.1999999881,2024-07-31T14:55:33.407Z,299323.3,TYqkLYL0P8,incremental,anketa,6645cf40bc81b65c5faccf1d,participant,hcpib7dulz9yqhc1,,,,,"Kamo je djevojka razmišljala o slobode, idući?","Djevojka je razmišljala o slobode, idući do mora.",ai,,,23,,,
,stimulus,canvas.Screen,2_15_1_0,,,,,,response,5808.200000000012,299208.7999999821,299312.154,299323.3,305131.5,305360,2024-07-31T14:55:39.560Z,305455.2,TYqkLYL0P8,incremental,anketa,6645cf40bc81b65c5faccf1d,participant,hcpib7dulz9yqhc1,,1,click @1,,"Kamo je djevojka razmišljala o slobode, idući?","Djevojka je razmišljala o slobode, idući do mora.",ai,,,23,,,
,Timer frame,html.Frame,2_15_1,,,,,,,6037.899999988091,299207.7999999821,299312.154,299323.3,305361.1999999881,305362.09999999404,2024-07-31T14:55:39.562Z,305455.2,TYqkLYL0P8,incremental,anketa,6645cf40bc81b65c5faccf1d,participant,hcpib7dulz9yqhc1,,,,,"Kamo je djevojka razmišljala o slobode, idući?","Djevojka je razmišljala o slobode, idući do mora.",ai,,,23,,,
,Spremanje,canvas.Screen,2_15_2,,,,,,skipped,,305362.6999999881,,,305361.1999999881,305363.1999999881,2024-07-31T14:55:39.563Z,305455.2,TYqkLYL0P8,incremental,anketa,6645cf40bc81b65c5faccf1d,participant,hcpib7dulz9yqhc1,,,,,"Kamo je djevojka razmišljala o slobode, idući?","Djevojka je razmišljala o slobode, idući do mora.",ai,,,23,,,
,Question form,html.Form,2_15_3,,,,,,skipped,,305363.7999999821,,,305361.1999999881,305364.40000000596,2024-07-31T14:55:39.564Z,305455.2,TYqkLYL0P8,incremental,anketa,6645cf40bc81b65c5faccf1d,participant,hcpib7dulz9yqhc1,,,,,"Kamo je djevojka razmišljala o slobode, idući?","Djevojka je razmišljala o slobode, idući do mora.",ai,,,23,,,
,Answer indication,canvas.Screen,2_15_4,,,,,,skipped,,305372.1999999881,,,305361.1999999881,305372.90000000596,2024-07-31T14:55:39.573Z,305455.2,TYqkLYL0P8,incremental,anketa,6645cf40bc81b65c5faccf1d,participant,hcpib7dulz9yqhc1,,,,,"Kamo je djevojka razmišljala o slobode, idući?","Djevojka je razmišljala o slobode, idući do mora.",ai,,,23,,,
,inter-stimulus,canvas.Screen,2_15_5,,,,,,response,553.9999999880674,305373.40000000596,305441.294,305455.2,306009.1999999881,306204.5,2024-07-31T14:55:40.404Z,306324.2,TYqkLYL0P8,incremental,anketa,6645cf40bc81b65c5faccf1d,participant,hcpib7dulz9yqhc1,,,mousedown,,"Kamo je djevojka razmišljala o slobode, idući?","Djevojka je razmišljala o slobode, idući do mora.",ai,,,23,,,
,Sequence,flow.Sequence,2_15,,,,,,completion,8801.599999988102,297114.2999999821,297184.404,297207.6,306009.1999999881,306206.2999999821,2024-07-31T14:55:40.406Z,306324.2,TYqkLYL0P8,incremental,anketa,6645cf40bc81b65c5faccf1d,participant,hcpib7dulz9yqhc1,,,,,"Kamo je djevojka razmišljala o slobode, idući?","Djevojka je razmišljala o slobode, idući do mora.",ai,,,23,,,
,context,canvas.Screen,2_16_0_0,,,,,,response,2061.9999999880674,306208.09999999404,306305.166,306324.2,308386.1999999881,308613.40000000596,2024-07-31T14:55:42.813Z,308701.6,TYqkLYL0P8,incremental,anketa,6645cf40bc81b65c5faccf1d,participant,hcpib7dulz9yqhc1,,,click,,Lijepe su samo crne čizme bile u ovom ormaru.,Samo su crne čizme bile lijepe stvari u ovom ormaru.,di,,,34,CRNA; CRNE; CRNI; CRNO; CRN,Boja cipela je?,
,Timer frame,html.Frame,2_16_0,,,,,,,2290.399999994028,306207.1999999881,306305.166,306324.2,308614.59999999404,308615.2999999821,2024-07-31T14:55:42.815Z,308701.6,TYqkLYL0P8,incremental,anketa,6645cf40bc81b65c5faccf1d,participant,hcpib7dulz9yqhc1,,,,,Lijepe su samo crne čizme bile u ovom ormaru.,Samo su crne čizme bile lijepe stvari u ovom ormaru.,di,,,34,CRNA; CRNE; CRNI; CRNO; CRN,Boja cipela je?,
,stimulus,canvas.Screen,2_16_1_0,,,,,,response,4078.699999982142,308617,308603.2,308701.6,312780.2999999821,313015.6999999881,2024-07-31T14:55:47.216Z,313143.6,TYqkLYL0P8,incremental,anketa,6645cf40bc81b65c5faccf1d,participant,hcpib7dulz9yqhc1,,5,click @5,,Lijepe su samo crne čizme bile u ovom ormaru.,Samo su crne čizme bile lijepe stvari u ovom ormaru.,di,,,34,CRNA; CRNE; CRNI; CRNO; CRN,Boja cipela je?,
,Timer frame,html.Frame,2_16_1,,,,,,,4315.099999988102,308616.09999999404,308603.2,308701.6,313016.6999999881,313017.59999999404,2024-07-31T14:55:47.217Z,313143.6,TYqkLYL0P8,incremental,anketa,6645cf40bc81b65c5faccf1d,participant,hcpib7dulz9yqhc1,,,,,Lijepe su samo crne čizme bile u ovom ormaru.,Samo su crne čizme bile lijepe stvari u ovom ormaru.,di,,,34,CRNA; CRNE; CRNI; CRNO; CRN,Boja cipela je?,
,Spremanje,canvas.Screen,2_16_2,,,,,,response,1529.3000000059837,313018.2999999821,313129.628,313143.6,314672.90000000596,314895.90000000596,2024-07-31T14:55:49.096Z,314913.9,TYqkLYL0P8,incremental,anketa,6645cf40bc81b65c5faccf1d,participant,hcpib7dulz9yqhc1,,,mousedown,,Lijepe su samo crne čizme bile u ovom ormaru.,Samo su crne čizme bile lijepe stvari u ovom ormaru.,di,,,34,CRNA; CRNE; CRNI; CRNO; CRN,Boja cipela je?,
,Question form,html.Form,2_16_3,,,,,,form submission,4790.099999999977,314896.6999999881,314897.5,314913.9,319704,319705.7999999821,2024-07-31T14:55:53.906Z,319782.9,TYqkLYL0P8,incremental,anketa,6645cf40bc81b65c5faccf1d,participant,hcpib7dulz9yqhc1,,,,Crna,Lijepe su samo crne čizme bile u ovom ormaru.,Samo su crne čizme bile lijepe stvari u ovom ormaru.,di,,,34,CRNA; CRNE; CRNI; CRNO; CRN,Boja cipela je?,
,Answer indication,canvas.Screen,2_16_4,,,,,,response,819.5999999999767,319712.09999999404,319758.416,319782.9,320602.5,320900.09999999404,2024-07-31T14:55:55.100Z,321027.8,TYqkLYL0P8,incremental,anketa,6645cf40bc81b65c5faccf1d,participant,hcpib7dulz9yqhc1,,,mousedown,,Lijepe su samo crne čizme bile u ovom ormaru.,Samo su crne čizme bile lijepe stvari u ovom ormaru.,di,,,34,CRNA; CRNE; CRNI; CRNO; CRN,Boja cipela je?,
,inter-stimulus,canvas.Screen,2_16_5,,,,,,response,1149.600000005972,320901.90000000596,321016.184,321027.8,322177.40000000596,322430.09999999404,2024-07-31T14:55:56.630Z,322520.6,TYqkLYL0P8,incremental,anketa,6645cf40bc81b65c5faccf1d,participant,hcpib7dulz9yqhc1,,,mousedown,,Lijepe su samo crne čizme bile u ovom ormaru.,Samo su crne čizme bile lijepe stvari u ovom ormaru.,di,,,34,CRNA; CRNE; CRNI; CRNO; CRN,Boja cipela je?,
,Sequence,flow.Sequence,2_16,,,,,,completion,15853.200000005949,306207,306305.166,306324.2,322177.40000000596,322432.5,2024-07-31T14:55:56.632Z,322520.6,TYqkLYL0P8,incremental,anketa,6645cf40bc81b65c5faccf1d,participant,hcpib7dulz9yqhc1,,,,,Lijepe su samo crne čizme bile u ovom ormaru.,Samo su crne čizme bile lijepe stvari u ovom ormaru.,di,,,34,CRNA; CRNE; CRNI; CRNO; CRN,Boja cipela je?,
,context,canvas.Screen,2_17_0_0,,,,,,response,2022.0999999881024,322434.59999999404,322511.074,322520.6,324542.6999999881,324768,2024-07-31T14:55:58.968Z,324929.3,TYqkLYL0P8,incremental,anketa,6645cf40bc81b65c5faccf1d,participant,hcpib7dulz9yqhc1,,,click,,Što je kupio i majicu?,On je kupio tenisice I majicu.,csi,0,0,0,,,2305
,Timer frame,html.Frame,2_17_0,,,,,,,2248.4000000000233,322433.6999999881,322511.074,322520.6,324769,324770,2024-07-31T14:55:58.970Z,324929.3,TYqkLYL0P8,incremental,anketa,6645cf40bc81b65c5faccf1d,participant,hcpib7dulz9yqhc1,,,,,Što je kupio i majicu?,On je kupio tenisice I majicu.,csi,0,0,0,,,2305
,stimulus,canvas.Screen,2_17_1_0,,,,,,response,2424.799999994051,324772,324916.092,324929.3,327354.09999999404,327599.59999999404,2024-07-31T14:56:01.799Z,327682.9,TYqkLYL0P8,incremental,anketa,6645cf40bc81b65c5faccf1d,participant,hcpib7dulz9yqhc1,,4,click @4,,Što je kupio i majicu?,On je kupio tenisice I majicu.,csi,0,0,0,,,2305
,Timer frame,html.Frame,2_17_1,,,,,,,2672.299999994051,324770.59999999404,324916.092,324929.3,327601.59999999404,327602.6999999881,2024-07-31T14:56:01.803Z,327682.9,TYqkLYL0P8,incremental,anketa,6645cf40bc81b65c5faccf1d,participant,hcpib7dulz9yqhc1,,,,,Što je kupio i majicu?,On je kupio tenisice I majicu.,csi,0,0,0,,,2305
,Spremanje,canvas.Screen,2_17_2,,,,,,skipped,,327603.6999999881,,,327601.59999999404,327604.59999999404,2024-07-31T14:56:01.804Z,327682.9,TYqkLYL0P8,incremental,anketa,6645cf40bc81b65c5faccf1d,participant,hcpib7dulz9yqhc1,,,,,Što je kupio i majicu?,On je kupio tenisice I majicu.,csi,0,0,0,,,2305
,Question form,html.Form,2_17_3,,,,,,skipped,,327605.40000000596,,,327601.59999999404,327606.40000000596,2024-07-31T14:56:01.806Z,327682.9,TYqkLYL0P8,incremental,anketa,6645cf40bc81b65c5faccf1d,participant,hcpib7dulz9yqhc1,,,,,Što je kupio i majicu?,On je kupio tenisice I majicu.,csi,0,0,0,,,2305
,Answer indication,canvas.Screen,2_17_4,,,,,,skipped,,327615.90000000596,,,327601.59999999404,327616.6999999881,2024-07-31T14:56:01.817Z,327682.9,TYqkLYL0P8,incremental,anketa,6645cf40bc81b65c5faccf1d,participant,hcpib7dulz9yqhc1,,,,,Što je kupio i majicu?,On je kupio tenisice I majicu.,csi,0,0,0,,,2305
,inter-stimulus,canvas.Screen,2_17_5,,,,,,response,1388.3999999820953,327617.40000000596,327668.196,327682.9,329071.2999999821,329305.59999999404,2024-07-31T14:56:03.505Z,329446.6,TYqkLYL0P8,incremental,anketa,6645cf40bc81b65c5faccf1d,participant,hcpib7dulz9yqhc1,,,mousedown,,Što je kupio i majicu?,On je kupio tenisice I majicu.,csi,0,0,0,,,2305
,Sequence,flow.Sequence,2_17,,,,,,completion,6550.699999982142,322433.40000000596,322511.074,322520.6,329071.2999999821,329307.1999999881,2024-07-31T14:56:03.507Z,329446.6,TYqkLYL0P8,incremental,anketa,6645cf40bc81b65c5faccf1d,participant,hcpib7dulz9yqhc1,,,,,Što je kupio i majicu?,On je kupio tenisice I majicu.,csi,0,0,0,,,2305
,context,canvas.Screen,2_18_0_0,,,,,,response,2084.699999982142,329309.1999999881,329432.83,329446.6,331531.2999999821,331755.7999999821,2024-07-31T14:56:05.956Z,331845.3,TYqkLYL0P8,incremental,anketa,6645cf40bc81b65c5faccf1d,participant,hcpib7dulz9yqhc1,,,click,,Kad je Lena pronašla honorarni posao?,Lena je pronašla honorarni posao ubrzo nakon praznika..,gf,,32,51,,,
,Timer frame,html.Frame,2_18_0,,,,,,,2310.3000000059837,329308.09999999404,329432.83,329446.6,331756.90000000596,331757.90000000596,2024-07-31T14:56:05.958Z,331845.3,TYqkLYL0P8,incremental,anketa,6645cf40bc81b65c5faccf1d,participant,hcpib7dulz9yqhc1,,,,,Kad je Lena pronašla honorarni posao?,Lena je pronašla honorarni posao ubrzo nakon praznika..,gf,,32,51,,,
,stimulus,canvas.Screen,2_18_1_0,,,,,,response,2192.3999999880907,331759.59999999404,331831.128,331845.3,334037.6999999881,334268.90000000596,2024-07-31T14:56:08.469Z,334418.7,TYqkLYL0P8,incremental,anketa,6645cf40bc81b65c5faccf1d,participant,hcpib7dulz9yqhc1,,7,click @7,,Kad je Lena pronašla honorarni posao?,Lena je pronašla honorarni posao ubrzo nakon praznika..,gf,,32,51,,,
,Timer frame,html.Frame,2_18_1,,,,,,,2424.4999999821302,331758.59999999404,331831.128,331845.3,334269.7999999821,334270.40000000596,2024-07-31T14:56:08.470Z,334418.7,TYqkLYL0P8,incremental,anketa,6645cf40bc81b65c5faccf1d,participant,hcpib7dulz9yqhc1,,,,,Kad je Lena pronašla honorarni posao?,Lena je pronašla honorarni posao ubrzo nakon praznika..,gf,,32,51,,,
,Spremanje,canvas.Screen,2_18_2,,,,,,skipped,,334270.90000000596,,,334269.7999999821,334271.59999999404,2024-07-31T14:56:08.471Z,334418.7,TYqkLYL0P8,incremental,anketa,6645cf40bc81b65c5faccf1d,participant,hcpib7dulz9yqhc1,,,,,Kad je Lena pronašla honorarni posao?,Lena je pronašla honorarni posao ubrzo nakon praznika..,gf,,32,51,,,
,Question form,html.Form,2_18_3,,,,,,skipped,,334272.09999999404,,,334269.7999999821,334272.6999999881,2024-07-31T14:56:08.473Z,334418.7,TYqkLYL0P8,incremental,anketa,6645cf40bc81b65c5faccf1d,participant,hcpib7dulz9yqhc1,,,,,Kad je Lena pronašla honorarni posao?,Lena je pronašla honorarni posao ubrzo nakon praznika..,gf,,32,51,,,
,Answer indication,canvas.Screen,2_18_4,,,,,,skipped,,334279.2999999821,,,334269.7999999821,334280.40000000596,2024-07-31T14:56:08.480Z,334418.7,TYqkLYL0P8,incremental,anketa,6645cf40bc81b65c5faccf1d,participant,hcpib7dulz9yqhc1,,,,,Kad je Lena pronašla honorarni posao?,Lena je pronašla honorarni posao ubrzo nakon praznika..,gf,,32,51,,,
,inter-stimulus,canvas.Screen,2_18_5,,,,,,response,2347.099999982107,334281.59999999404,334404.96,334418.7,336765.7999999821,336995,2024-07-31T14:56:11.195Z,337074,TYqkLYL0P8,incremental,anketa,6645cf40bc81b65c5faccf1d,participant,hcpib7dulz9yqhc1,,,mousedown,,Kad je Lena pronašla honorarni posao?,Lena je pronašla honorarni posao ubrzo nakon praznika..,gf,,32,51,,,
,Sequence,flow.Sequence,2_18,,,,,,completion,7319.199999982142,329307.7999999821,329432.83,329446.6,336765.7999999821,336997.09999999404,2024-07-31T14:56:11.197Z,337074,TYqkLYL0P8,incremental,anketa,6645cf40bc81b65c5faccf1d,participant,hcpib7dulz9yqhc1,,,,,Kad je Lena pronašla honorarni posao?,Lena je pronašla honorarni posao ubrzo nakon praznika..,gf,,32,51,,,
,context,canvas.Screen,2_19_0_0,,,,,,response,2353.9000000059605,336999.1999999881,337068.594,337074,339427.90000000596,339652.40000000596,2024-07-31T14:56:13.852Z,339779.2,TYqkLYL0P8,incremental,anketa,6645cf40bc81b65c5faccf1d,participant,hcpib7dulz9yqhc1,,,click,,Što si saznao tužnu vijest da je Petar izgubio u podzemnoj??,Saznao si tužnu vijest da je Petar izgubio putovnicu u podzemnoj..,cnp,38,34,9,,,
,Timer frame,html.Frame,2_19_0,,,,,,,2579.199999988079,336998.1999999881,337068.594,337074,339653.1999999881,339653.90000000596,2024-07-31T14:56:13.854Z,339779.2,TYqkLYL0P8,incremental,anketa,6645cf40bc81b65c5faccf1d,participant,hcpib7dulz9yqhc1,,,,,Što si saznao tužnu vijest da je Petar izgubio u podzemnoj??,Saznao si tužnu vijest da je Petar izgubio putovnicu u podzemnoj..,cnp,38,34,9,,,
,stimulus,canvas.Screen,2_19_1_0,,,,,,response,2067.899999994028,339655.2999999821,339732.394,339779.2,341847.09999999404,342074.90000000596,2024-07-31T14:56:16.275Z,342172.2,TYqkLYL0P8,incremental,anketa,6645cf40bc81b65c5faccf1d,participant,hcpib7dulz9yqhc1,,4,click @4,,Što si saznao tužnu vijest da je Petar izgubio u podzemnoj??,Saznao si tužnu vijest da je Petar izgubio putovnicu u podzemnoj..,cnp,38,34,9,,,
,Timer frame,html.Frame,2_19_1,,,,,,,2296.9999999880674,339654.40000000596,339732.394,339779.2,342076.1999999881,342077.09999999404,2024-07-31T14:56:16.277Z,342172.2,TYqkLYL0P8,incremental,anketa,6645cf40bc81b65c5faccf1d,participant,hcpib7dulz9yqhc1,,,,,Što si saznao tužnu vijest da je Petar izgubio u podzemnoj??,Saznao si tužnu vijest da je Petar izgubio putovnicu u podzemnoj..,cnp,38,34,9,,,
,Spremanje,canvas.Screen,2_19_2,,,,,,skipped,,342077.90000000596,,,342076.1999999881,342078.5,2024-07-31T14:56:16.278Z,342172.2,TYqkLYL0P8,incremental,anketa,6645cf40bc81b65c5faccf1d,participant,hcpib7dulz9yqhc1,,,,,Što si saznao tužnu vijest da je Petar izgubio u podzemnoj??,Saznao si tužnu vijest da je Petar izgubio putovnicu u podzemnoj..,cnp,38,34,9,,,
,Question form,html.Form,2_19_3,,,,,,skipped,,342079,,,342076.1999999881,342079.6999999881,2024-07-31T14:56:16.280Z,342172.2,TYqkLYL0P8,incremental,anketa,6645cf40bc81b65c5faccf1d,participant,hcpib7dulz9yqhc1,,,,,Što si saznao tužnu vijest da je Petar izgubio u podzemnoj??,Saznao si tužnu vijest da je Petar izgubio putovnicu u podzemnoj..,cnp,38,34,9,,,
,Answer indication,canvas.Screen,2_19_4,,,,,,skipped,,342088,,,342076.1999999881,342088.90000000596,2024-07-31T14:56:16.289Z,342172.2,TYqkLYL0P8,incremental,anketa,6645cf40bc81b65c5faccf1d,participant,hcpib7dulz9yqhc1,,,,,Što si saznao tužnu vijest da je Petar izgubio u podzemnoj??,Saznao si tužnu vijest da je Petar izgubio putovnicu u podzemnoj..,cnp,38,34,9,,,
,inter-stimulus,canvas.Screen,2_19_5,,,,,,response,3723.7999999999884,342089.6999999881,342159.358,342172.2,345896,346130.40000000596,2024-07-31T14:56:20.330Z,346222.7,TYqkLYL0P8,incremental,anketa,6645cf40bc81b65c5faccf1d,participant,hcpib7dulz9yqhc1,,,mousedown,,Što si saznao tužnu vijest da je Petar izgubio u podzemnoj??,Saznao si tužnu vijest da je Petar izgubio putovnicu u podzemnoj..,cnp,38,34,9,,,
,Sequence,flow.Sequence,2_19,,,,,,completion,8822,336997.90000000596,337068.594,337074,345896,346132.6999999881,2024-07-31T14:56:20.333Z,346222.7,TYqkLYL0P8,incremental,anketa,6645cf40bc81b65c5faccf1d,participant,hcpib7dulz9yqhc1,,,,,Što si saznao tužnu vijest da je Petar izgubio u podzemnoj??,Saznao si tužnu vijest da je Petar izgubio putovnicu u podzemnoj..,cnp,38,34,9,,,
,context,canvas.Screen,2_20_0_0,,,,,,response,8584.099999982107,346134.7999999821,346205.372,346222.7,354806.7999999821,355020.59999999404,2024-07-31T14:56:29.220Z,355090.6,TYqkLYL0P8,incremental,anketa,6645cf40bc81b65c5faccf1d,participant,hcpib7dulz9yqhc1,,,click,,Sanjam dvorac iz kojeg se čuje glasan plač daleko..,Sanjam dvorac daleko iz kojeg se čuje glasan plač..,ai,30,37,26,,,
,Timer frame,html.Frame,2_20_0,,,,,,,8799.099999982107,346133.6999999881,346205.372,346222.7,355021.7999999821,355022.2999999821,2024-07-31T14:56:29.222Z,355090.6,TYqkLYL0P8,incremental,anketa,6645cf40bc81b65c5faccf1d,participant,hcpib7dulz9yqhc1,,,,,Sanjam dvorac iz kojeg se čuje glasan plač daleko..,Sanjam dvorac daleko iz kojeg se čuje glasan plač..,ai,30,37,26,,,
,stimulus,canvas.Screen,2_20_1_0,,,,,,response,2881.9000000000233,355023.2999999821,355060.294,355090.6,357972.5,358196.59999999404,2024-07-31T14:56:32.396Z,358287.6,TYqkLYL0P8,incremental,anketa,6645cf40bc81b65c5faccf1d,participant,hcpib7dulz9yqhc1,,1,click @1,,Sanjam dvorac iz kojeg se čuje glasan plač daleko..,Sanjam dvorac daleko iz kojeg se čuje glasan plač..,ai,30,37,26,,,
,Timer frame,html.Frame,2_20_1,,,,,,,3106.5999999881024,355022.7999999821,355060.294,355090.6,358197.1999999881,358197.59999999404,2024-07-31T14:56:32.397Z,358287.6,TYqkLYL0P8,incremental,anketa,6645cf40bc81b65c5faccf1d,participant,hcpib7dulz9yqhc1,,,,,Sanjam dvorac iz kojeg se čuje glasan plač daleko..,Sanjam dvorac daleko iz kojeg se čuje glasan plač..,ai,30,37,26,,,
,Spremanje,canvas.Screen,2_20_2,,,,,,skipped,,358198,,,358197.1999999881,358198.40000000596,2024-07-31T14:56:32.398Z,358287.6,TYqkLYL0P8,incremental,anketa,6645cf40bc81b65c5faccf1d,participant,hcpib7dulz9yqhc1,,,,,Sanjam dvorac iz kojeg se čuje glasan plač daleko..,Sanjam dvorac daleko iz kojeg se čuje glasan plač..,ai,30,37,26,,,
,Question form,html.Form,2_20_3,,,,,,skipped,,358198.59999999404,,,358197.1999999881,358199,2024-07-31T14:56:32.399Z,358287.6,TYqkLYL0P8,incremental,anketa,6645cf40bc81b65c5faccf1d,participant,hcpib7dulz9yqhc1,,,,,Sanjam dvorac iz kojeg se čuje glasan plač daleko..,Sanjam dvorac daleko iz kojeg se čuje glasan plač..,ai,30,37,26,,,
,Answer indication,canvas.Screen,2_20_4,,,,,,skipped,,358203.7999999821,,,358197.1999999881,358204.40000000596,2024-07-31T14:56:32.404Z,358287.6,TYqkLYL0P8,incremental,anketa,6645cf40bc81b65c5faccf1d,participant,hcpib7dulz9yqhc1,,,,,Sanjam dvorac iz kojeg se čuje glasan plač daleko..,Sanjam dvorac daleko iz kojeg se čuje glasan plač..,ai,30,37,26,,,
,inter-stimulus,canvas.Screen,2_20_5,,,,,,response,1410.199999982142,358204.7999999821,358272.896,358287.6,359697.7999999821,359894,2024-07-31T14:56:34.094Z,359943.6,TYqkLYL0P8,incremental,anketa,6645cf40bc81b65c5faccf1d,participant,hcpib7dulz9yqhc1,,,mousedown,,Sanjam dvorac iz kojeg se čuje glasan plač daleko..,Sanjam dvorac daleko iz kojeg se čuje glasan plač..,ai,30,37,26,,,
,Sequence,flow.Sequence,2_20,,,,,,completion,13475.099999982107,346133.40000000596,346205.372,346222.7,359697.7999999821,359895.09999999404,2024-07-31T14:56:34.095Z,359943.6,TYqkLYL0P8,incremental,anketa,6645cf40bc81b65c5faccf1d,participant,hcpib7dulz9yqhc1,,,,,Sanjam dvorac iz kojeg se čuje glasan plač daleko..,Sanjam dvorac daleko iz kojeg se čuje glasan plač..,ai,30,37,26,,,
,context,canvas.Screen,2_21_0_0,,,,,,response,2230.9000000000233,359896,359937.534,359943.6,362174.5,362406.1999999881,2024-07-31T14:56:36.606Z,362500.9,TYqkLYL0P8,incremental,anketa,6645cf40bc81b65c5faccf1d,participant,hcpib7dulz9yqhc1,,,click,,Kakva čovjeka svatko tko poznaje može potvrditi njegov integritet??,Svatko tko poznaje onog čovjeka može potvrditi njegov integritet..,si,33,31,12,,,2305
,Timer frame,html.Frame,2_21_0,,,,,,,2462.999999994063,359895.5,359937.534,359943.6,362406.59999999404,362406.90000000596,2024-07-31T14:56:36.607Z,362500.9,TYqkLYL0P8,incremental,anketa,6645cf40bc81b65c5faccf1d,participant,hcpib7dulz9yqhc1,,,,,Kakva čovjeka svatko tko poznaje može potvrditi njegov integritet??,Svatko tko poznaje onog čovjeka može potvrditi njegov integritet..,si,33,31,12,,,2305
,stimulus,canvas.Screen,2_21_1_0,,,,,,response,2001.1999999940163,362407.59999999404,362486.728,362500.9,364502.09999999404,364733,2024-07-31T14:56:38.933Z,364796.4,TYqkLYL0P8,incremental,anketa,6645cf40bc81b65c5faccf1d,participant,hcpib7dulz9yqhc1,,1,click @1,,Kakva čovjeka svatko tko poznaje može potvrditi njegov integritet??,Svatko tko poznaje onog čovjeka može potvrditi njegov integritet..,si,33,31,12,,,2305
,Timer frame,html.Frame,2_21_1,,,,,,,2232.5999999999767,362407.1999999881,362486.728,362500.9,364733.5,364733.7999999821,2024-07-31T14:56:38.934Z,364796.4,TYqkLYL0P8,incremental,anketa,6645cf40bc81b65c5faccf1d,participant,hcpib7dulz9yqhc1,,,,,Kakva čovjeka svatko tko poznaje može potvrditi njegov integritet??,Svatko tko poznaje onog čovjeka može potvrditi njegov integritet..,si,33,31,12,,,2305
,Spremanje,canvas.Screen,2_21_2,,,,,,skipped,,364734.09999999404,,,364733.5,364734.2999999821,2024-07-31T14:56:38.934Z,364796.4,TYqkLYL0P8,incremental,anketa,6645cf40bc81b65c5faccf1d,participant,hcpib7dulz9yqhc1,,,,,Kakva čovjeka svatko tko poznaje može potvrditi njegov integritet??,Svatko tko poznaje onog čovjeka može potvrditi njegov integritet..,si,33,31,12,,,2305
,Question form,html.Form,2_21_3,,,,,,skipped,,364734.40000000596,,,364733.5,364734.6999999881,2024-07-31T14:56:38.935Z,364796.4,TYqkLYL0P8,incremental,anketa,6645cf40bc81b65c5faccf1d,participant,hcpib7dulz9yqhc1,,,,,Kakva čovjeka svatko tko poznaje može potvrditi njegov integritet??,Svatko tko poznaje onog čovjeka može potvrditi njegov integritet..,si,33,31,12,,,2305
,Answer indication,canvas.Screen,2_21_4,,,,,,skipped,,364737.90000000596,,,364733.5,364738.40000000596,2024-07-31T14:56:38.938Z,364796.4,TYqkLYL0P8,incremental,anketa,6645cf40bc81b65c5faccf1d,participant,hcpib7dulz9yqhc1,,,,,Kakva čovjeka svatko tko poznaje može potvrditi njegov integritet??,Svatko tko poznaje onog čovjeka može potvrditi njegov integritet..,si,33,31,12,,,2305
,inter-stimulus,canvas.Screen,2_21_5,,,,,,response,3597.3999999820953,364738.6999999881,364781.33,364796.4,368393.7999999821,368582.59999999404,2024-07-31T14:56:42.782Z,368698.7,TYqkLYL0P8,incremental,anketa,6645cf40bc81b65c5faccf1d,participant,hcpib7dulz9yqhc1,,,mousedown,,Kakva čovjeka svatko tko poznaje može potvrditi njegov integritet??,Svatko tko poznaje onog čovjeka može potvrditi njegov integritet..,si,33,31,12,,,2305
,Sequence,flow.Sequence,2_21,,,,,,completion,8450.199999982142,359895.40000000596,359937.534,359943.6,368393.7999999821,368584.2999999821,2024-07-31T14:56:42.784Z,368698.7,TYqkLYL0P8,incremental,anketa,6645cf40bc81b65c5faccf1d,participant,hcpib7dulz9yqhc1,,,,,Kakva čovjeka svatko tko poznaje može potvrditi njegov integritet??,Svatko tko poznaje onog čovjeka može potvrditi njegov integritet..,si,33,31,12,,,2305
,context,canvas.Screen,2_22_0_0,,,,,,response,2059.099999982107,368586.6999999881,368679.578,368698.7,370757.7999999821,370928.6999999881,2024-07-31T14:56:45.129Z,370994.3,TYqkLYL0P8,incremental,anketa,6645cf40bc81b65c5faccf1d,participant,hcpib7dulz9yqhc1,,,click,,Koliko vidim dječaka kojem je ljubazni poštar poklonio bicikla??,Vidim dječaka kojem je ljubazni poštar poklonio dva bicikla..,cnp,38,38,10,,,2305
,Timer frame,html.Frame,2_22_0,,,,,,,2231.700000005949,368585.59999999404,368679.578,368698.7,370930.40000000596,370931,2024-07-31T14:56:45.131Z,370994.3,TYqkLYL0P8,incremental,anketa,6645cf40bc81b65c5faccf1d,participant,hcpib7dulz9yqhc1,,,,,Koliko vidim dječaka kojem je ljubazni poštar poklonio bicikla??,Vidim dječaka kojem je ljubazni poštar poklonio dva bicikla..,cnp,38,38,10,,,2305
,stimulus,canvas.Screen,2_22_1_0,,,,,,response,1923.7000000000116,370932.40000000596,370981.392,370994.3,372918,373132.5,2024-07-31T14:56:47.332Z,373193.096,TYqkLYL0P8,incremental,anketa,6645cf40bc81b65c5faccf1d,participant,hcpib7dulz9yqhc1,,1,click @1,,Koliko vidim dječaka kojem je ljubazni poštar poklonio bicikla??,Vidim dječaka kojem je ljubazni poštar poklonio dva bicikla..,cnp,38,38,10,,,2305
,Timer frame,html.Frame,2_22_1,,,,,,,2138.600000005972,370931.7999999821,370981.392,370994.3,373132.90000000596,373133.1999999881,2024-07-31T14:56:47.333Z,373193.096,TYqkLYL0P8,incremental,anketa,6645cf40bc81b65c5faccf1d,participant,hcpib7dulz9yqhc1,,,,,Koliko vidim dječaka kojem je ljubazni poštar poklonio bicikla??,Vidim dječaka kojem je ljubazni poštar poklonio dva bicikla..,cnp,38,38,10,,,2305
,Spremanje,canvas.Screen,2_22_2,,,,,,skipped,,373133.5,,,373132.90000000596,373133.59999999404,2024-07-31T14:56:47.333Z,373193.096,TYqkLYL0P8,incremental,anketa,6645cf40bc81b65c5faccf1d,participant,hcpib7dulz9yqhc1,,,,,Koliko vidim dječaka kojem je ljubazni poštar poklonio bicikla??,Vidim dječaka kojem je ljubazni poštar poklonio dva bicikla..,cnp,38,38,10,,,2305
,Question form,html.Form,2_22_3,,,,,,skipped,,373133.90000000596,,,373132.90000000596,373134.09999999404,2024-07-31T14:56:47.334Z,373193.096,TYqkLYL0P8,incremental,anketa,6645cf40bc81b65c5faccf1d,participant,hcpib7dulz9yqhc1,,,,,Koliko vidim dječaka kojem je ljubazni poštar poklonio bicikla??,Vidim dječaka kojem je ljubazni poštar poklonio dva bicikla..,cnp,38,38,10,,,2305
,Answer indication,canvas.Screen,2_22_4,,,,,,skipped,,373136.5,,,373132.90000000596,373136.7999999821,2024-07-31T14:56:47.337Z,373193.096,TYqkLYL0P8,incremental,anketa,6645cf40bc81b65c5faccf1d,participant,hcpib7dulz9yqhc1,,,,,Koliko vidim dječaka kojem je ljubazni poštar poklonio bicikla??,Vidim dječaka kojem je ljubazni poštar poklonio dva bicikla..,cnp,38,38,10,,,2305
,inter-stimulus,canvas.Screen,2_22_5,,,,,,response,1078.203999982099,373137.09999999404,373193.096,373193.096,374271.2999999821,374482.5,2024-07-31T14:56:48.682Z,374601.7,TYqkLYL0P8,incremental,anketa,6645cf40bc81b65c5faccf1d,participant,hcpib7dulz9yqhc1,,,mousedown,,Koliko vidim dječaka kojem je ljubazni poštar poklonio bicikla??,Vidim dječaka kojem je ljubazni poštar poklonio dva bicikla..,cnp,38,38,10,,,2305
,Sequence,flow.Sequence,2_22,,,,,,completion,5572.599999982107,368585.2999999821,368679.578,368698.7,374271.2999999821,374483.5,2024-07-31T14:56:48.683Z,374601.7,TYqkLYL0P8,incremental,anketa,6645cf40bc81b65c5faccf1d,participant,hcpib7dulz9yqhc1,,,,,Koliko vidim dječaka kojem je ljubazni poštar poklonio bicikla??,Vidim dječaka kojem je ljubazni poštar poklonio dva bicikla..,cnp,38,38,10,,,2305
,context,canvas.Screen,2_23_0_0,,,,,,response,1574.7999999999884,374484.5,374576.374,374601.7,376176.5,376362.09999999404,2024-07-31T14:56:50.562Z,376470.9,TYqkLYL0P8,incremental,anketa,6645cf40bc81b65c5faccf1d,participant,hcpib7dulz9yqhc1,,,click,,Večeras je Anna nalakirala nokte.,Anna je večeras nalakirala nokte.,gf,,,49,,,
,Timer frame,html.Frame,2_23_0,,,,,,,1760.899999994028,374483.90000000596,374576.374,374601.7,376362.59999999404,376363,2024-07-31T14:56:50.563Z,376470.9,TYqkLYL0P8,incremental,anketa,6645cf40bc81b65c5faccf1d,participant,hcpib7dulz9yqhc1,,,,,Večeras je Anna nalakirala nokte.,Anna je večeras nalakirala nokte.,gf,,,49,,,
,stimulus,canvas.Screen,2_23_1_0,,,,,,response,2012.0000000059372,376364,376457.26,376470.9,378482.90000000596,378695,2024-07-31T14:56:52.895Z,378784.594,TYqkLYL0P8,incremental,anketa,6645cf40bc81b65c5faccf1d,participant,hcpib7dulz9yqhc1,,7,click @7,,Večeras je Anna nalakirala nokte.,Anna je večeras nalakirala nokte.,gf,,,49,,,
,Timer frame,html.Frame,2_23_1,,,,,,,2225.5999999999767,376363.2999999821,376457.26,376470.9,378696.5,378697.1999999881,2024-07-31T14:56:52.897Z,378784.594,TYqkLYL0P8,incremental,anketa,6645cf40bc81b65c5faccf1d,participant,hcpib7dulz9yqhc1,,,,,Večeras je Anna nalakirala nokte.,Anna je večeras nalakirala nokte.,gf,,,49,,,
,Spremanje,canvas.Screen,2_23_2,,,,,,skipped,,378698,,,378696.5,378698.5,2024-07-31T14:56:52.898Z,378784.594,TYqkLYL0P8,incremental,anketa,6645cf40bc81b65c5faccf1d,participant,hcpib7dulz9yqhc1,,,,,Večeras je Anna nalakirala nokte.,Anna je večeras nalakirala nokte.,gf,,,49,,,
,Question form,html.Form,2_23_3,,,,,,skipped,,378699.09999999404,,,378696.5,378699.6999999881,2024-07-31T14:56:52.900Z,378784.594,TYqkLYL0P8,incremental,anketa,6645cf40bc81b65c5faccf1d,participant,hcpib7dulz9yqhc1,,,,,Večeras je Anna nalakirala nokte.,Anna je večeras nalakirala nokte.,gf,,,49,,,
,Answer indication,canvas.Screen,2_23_4,,,,,,skipped,,378708.6999999881,,,378696.5,378709.6999999881,2024-07-31T14:56:52.910Z,378784.594,TYqkLYL0P8,incremental,anketa,6645cf40bc81b65c5faccf1d,participant,hcpib7dulz9yqhc1,,,,,Večeras je Anna nalakirala nokte.,Anna je večeras nalakirala nokte.,gf,,,49,,,
,inter-stimulus,canvas.Screen,2_23_5,,,,,,response,2496.8060000059777,378710.5,378784.594,378784.594,381281.40000000596,381456,2024-07-31T14:56:55.656Z,381585.9,TYqkLYL0P8,incremental,anketa,6645cf40bc81b65c5faccf1d,participant,hcpib7dulz9yqhc1,,,mousedown,,Večeras je Anna nalakirala nokte.,Anna je večeras nalakirala nokte.,gf,,,49,,,
,Sequence,flow.Sequence,2_23,,,,,,completion,6679.700000005949,374483.7999999821,374576.374,374601.7,381281.40000000596,381456.7999999821,2024-07-31T14:56:55.657Z,381585.9,TYqkLYL0P8,incremental,anketa,6645cf40bc81b65c5faccf1d,participant,hcpib7dulz9yqhc1,,,,,Večeras je Anna nalakirala nokte.,Anna je večeras nalakirala nokte.,gf,,,49,,,
,context,canvas.Screen,2_24_0_0,,,,,,response,1725.8999999820953,381457.6999999881,381567.816,381585.9,383311.7999999821,383520.2999999821,2024-07-31T14:56:57.720Z,383586.6,TYqkLYL0P8,incremental,anketa,6645cf40bc81b65c5faccf1d,participant,hcpib7dulz9yqhc1,,,click,,Čije sam cvijeće izašao iz kuće i zaboravio zaliti?,Izašao sam iz kuće i zaboravio zaliti majkino cvijeće.,csi,0,0,4,ZALITI MAJKINO CVIJEĆE; ZALITI MAMINO CVIJECE; ZALITI CVIJECE MAJKE; ZALITI MAJČINO CVIJEĆE; ZALITI CVIJEĆE MAJKE; ZALITI MAJKINO CVIJECE; MAJKINO CVIJEĆE ZALITI; MAJKINO CVIJECE ZALITI; ZALITI CVIJECE; ZALITI CVIJEĆE; ZALITI CVJEĆE; ZALITI CVJECE,Što sam zaboravio napraviti?,
,Timer frame,html.Frame,2_24_0,,,,,,,1935.1999999940163,381457.1999999881,381567.816,381585.9,383521.09999999404,383522.40000000596,2024-07-31T14:56:57.722Z,383586.6,TYqkLYL0P8,incremental,anketa,6645cf40bc81b65c5faccf1d,participant,hcpib7dulz9yqhc1,,,,,Čije sam cvijeće izašao iz kuće i zaboravio zaliti?,Izašao sam iz kuće i zaboravio zaliti majkino cvijeće.,csi,0,0,4,ZALITI MAJKINO CVIJEĆE; ZALITI MAMINO CVIJECE; ZALITI CVIJECE MAJKE; ZALITI MAJČINO CVIJEĆE; ZALITI CVIJEĆE MAJKE; ZALITI MAJKINO CVIJECE; MAJKINO CVIJEĆE ZALITI; MAJKINO CVIJECE ZALITI; ZALITI CVIJECE; ZALITI CVIJEĆE; ZALITI CVJEĆE; ZALITI CVJECE,Što sam zaboravio napraviti?,
,stimulus,canvas.Screen,2_24_1_0,,,,,,response,2399.3000000059837,383523.59999999404,383571.696,383586.6,385985.90000000596,386221.59999999404,2024-07-31T14:57:00.421Z,386357.1,TYqkLYL0P8,incremental,anketa,6645cf40bc81b65c5faccf1d,participant,hcpib7dulz9yqhc1,,1,click @1,,Čije sam cvijeće izašao iz kuće i zaboravio zaliti?,Izašao sam iz kuće i zaboravio zaliti majkino cvijeće.,csi,0,0,4,ZALITI MAJKINO CVIJEĆE; ZALITI MAMINO CVIJECE; ZALITI CVIJECE MAJKE; ZALITI MAJČINO CVIJEĆE; ZALITI CVIJEĆE MAJKE; ZALITI MAJKINO CVIJECE; MAJKINO CVIJEĆE ZALITI; MAJKINO CVIJECE ZALITI; ZALITI CVIJECE; ZALITI CVIJEĆE; ZALITI CVJEĆE; ZALITI CVJECE,Što sam zaboravio napraviti?,
,Timer frame,html.Frame,2_24_1,,,,,,,2635.9000000000233,383522.90000000596,383571.696,383586.6,386222.5,386223.09999999404,2024-07-31T14:57:00.423Z,386357.1,TYqkLYL0P8,incremental,anketa,6645cf40bc81b65c5faccf1d,participant,hcpib7dulz9yqhc1,,,,,Čije sam cvijeće izašao iz kuće i zaboravio zaliti?,Izašao sam iz kuće i zaboravio zaliti majkino cvijeće.,csi,0,0,4,ZALITI MAJKINO CVIJEĆE; ZALITI MAMINO CVIJECE; ZALITI CVIJECE MAJKE; ZALITI MAJČINO CVIJEĆE; ZALITI CVIJEĆE MAJKE; ZALITI MAJKINO CVIJECE; MAJKINO CVIJEĆE ZALITI; MAJKINO CVIJECE ZALITI; ZALITI CVIJECE; ZALITI CVIJEĆE; ZALITI CVJEĆE; ZALITI CVJECE,Što sam zaboravio napraviti?,
,Spremanje,canvas.Screen,2_24_2,,,,,,response,1333.5999999881024,386223.59999999404,386345.156,386357.1,387690.6999999881,387895.7999999821,2024-07-31T14:57:02.096Z,387947.6,TYqkLYL0P8,incremental,anketa,6645cf40bc81b65c5faccf1d,participant,hcpib7dulz9yqhc1,,,mousedown,,Čije sam cvijeće izašao iz kuće i zaboravio zaliti?,Izašao sam iz kuće i zaboravio zaliti majkino cvijeće.,csi,0,0,4,ZALITI MAJKINO CVIJEĆE; ZALITI MAMINO CVIJECE; ZALITI CVIJECE MAJKE; ZALITI MAJČINO CVIJEĆE; ZALITI CVIJEĆE MAJKE; ZALITI MAJKINO CVIJECE; MAJKINO CVIJEĆE ZALITI; MAJKINO CVIJECE ZALITI; ZALITI CVIJECE; ZALITI CVIJEĆE; ZALITI CVJEĆE; ZALITI CVJECE,Što sam zaboravio napraviti?,
,Question form,html.Form,2_24_3,,,,,,form submission,8065.400000000023,387896.40000000596,387940.37,387947.6,396013,396014.40000000596,2024-07-31T14:57:10.214Z,396128.9,TYqkLYL0P8,incremental,anketa,6645cf40bc81b65c5faccf1d,participant,hcpib7dulz9yqhc1,,,,"Zaliti cvijeće ",Čije sam cvijeće izašao iz kuće i zaboravio zaliti?,Izašao sam iz kuće i zaboravio zaliti majkino cvijeće.,csi,0,0,4,ZALITI MAJKINO CVIJEĆE; ZALITI MAMINO CVIJECE; ZALITI CVIJECE MAJKE; ZALITI MAJČINO CVIJEĆE; ZALITI CVIJEĆE MAJKE; ZALITI MAJKINO CVIJECE; MAJKINO CVIJEĆE ZALITI; MAJKINO CVIJECE ZALITI; ZALITI CVIJECE; ZALITI CVIJEĆE; ZALITI CVJEĆE; ZALITI CVJECE,Što sam zaboravio napraviti?,
,Answer indication,canvas.Screen,2_24_4,,,,,,response,3431.500000005937,396029,396116.89,396128.9,399560.40000000596,399761,2024-07-31T14:57:13.961Z,399900.4,TYqkLYL0P8,incremental,anketa,6645cf40bc81b65c5faccf1d,participant,hcpib7dulz9yqhc1,,,mousedown,,Čije sam cvijeće izašao iz kuće i zaboravio zaliti?,Izašao sam iz kuće i zaboravio zaliti majkino cvijeće.,csi,0,0,4,ZALITI MAJKINO CVIJEĆE; ZALITI MAMINO CVIJECE; ZALITI CVIJECE MAJKE; ZALITI MAJČINO CVIJEĆE; ZALITI CVIJEĆE MAJKE; ZALITI MAJKINO CVIJECE; MAJKINO CVIJEĆE ZALITI; MAJKINO CVIJECE ZALITI; ZALITI CVIJECE; ZALITI CVIJEĆE; ZALITI CVJEĆE; ZALITI CVJECE,Što sam zaboravio napraviti?,
,inter-stimulus,canvas.Screen,2_24_5,,,,,,response,1289.5000000059372,399762.40000000596,399897.592,399900.4,401189.90000000596,401392.59999999404,2024-07-31T14:57:15.593Z,401491.5,TYqkLYL0P8,incremental,anketa,6645cf40bc81b65c5faccf1d,participant,hcpib7dulz9yqhc1,,,mousedown,,Čije sam cvijeće izašao iz kuće i zaboravio zaliti?,Izašao sam iz kuće i zaboravio zaliti majkino cvijeće.,csi,0,0,4,ZALITI MAJKINO CVIJEĆE; ZALITI MAMINO CVIJECE; ZALITI CVIJECE MAJKE; ZALITI MAJČINO CVIJEĆE; ZALITI CVIJEĆE MAJKE; ZALITI MAJKINO CVIJECE; MAJKINO CVIJEĆE ZALITI; MAJKINO CVIJECE ZALITI; ZALITI CVIJECE; ZALITI CVIJEĆE; ZALITI CVJEĆE; ZALITI CVJECE,Što sam zaboravio napraviti?,
,Sequence,flow.Sequence,2_24,,,,,,completion,19604.000000005937,381457.09999999404,381567.816,381585.9,401189.90000000596,401394.7999999821,2024-07-31T14:57:15.595Z,401491.5,TYqkLYL0P8,incremental,anketa,6645cf40bc81b65c5faccf1d,participant,hcpib7dulz9yqhc1,,,,,Čije sam cvijeće izašao iz kuće i zaboravio zaliti?,Izašao sam iz kuće i zaboravio zaliti majkino cvijeće.,csi,0,0,4,ZALITI MAJKINO CVIJEĆE; ZALITI MAMINO CVIJECE; ZALITI CVIJECE MAJKE; ZALITI MAJČINO CVIJEĆE; ZALITI CVIJEĆE MAJKE; ZALITI MAJKINO CVIJECE; MAJKINO CVIJEĆE ZALITI; MAJKINO CVIJECE ZALITI; ZALITI CVIJECE; ZALITI CVIJEĆE; ZALITI CVJEĆE; ZALITI CVJECE,Što sam zaboravio napraviti?,
,context,canvas.Screen,2_25_0_0,,,,,,response,2000.199999988079,401401.40000000596,401467.004,401491.5,403491.6999999881,403694.7999999821,2024-07-31T14:57:17.895Z,403836.3,TYqkLYL0P8,incremental,anketa,6645cf40bc81b65c5faccf1d,participant,hcpib7dulz9yqhc1,,,click,,Od čega je djed otišao u sanatorij odmarati?,Djed je otišao u sanatorij odmarati od gužve i buke..,ai,,26,30,,,
,Timer frame,html.Frame,2_25_0,,,,,,,2204.2999999821186,401400.2999999821,401467.004,401491.5,403695.7999999821,403696.59999999404,2024-07-31T14:57:17.897Z,403836.3,TYqkLYL0P8,incremental,anketa,6645cf40bc81b65c5faccf1d,participant,hcpib7dulz9yqhc1,,,,,Od čega je djed otišao u sanatorij odmarati?,Djed je otišao u sanatorij odmarati od gužve i buke..,ai,,26,30,,,
,stimulus,canvas.Screen,2_25_1_0,,,,,,response,5247.49999998213,403698.40000000596,403825.42,403836.3,409083.7999999821,409315.7999999821,2024-07-31T14:57:23.516Z,409410,TYqkLYL0P8,incremental,anketa,6645cf40bc81b65c5faccf1d,participant,hcpib7dulz9yqhc1,,1,click @1,,Od čega je djed otišao u sanatorij odmarati?,Djed je otišao u sanatorij odmarati od gužve i buke..,ai,,26,30,,,
,Timer frame,html.Frame,2_25_1,,,,,,,5480.799999994051,403697.40000000596,403825.42,403836.3,409317.09999999404,409318.40000000596,2024-07-31T14:57:23.518Z,409410,TYqkLYL0P8,incremental,anketa,6645cf40bc81b65c5faccf1d,participant,hcpib7dulz9yqhc1,,,,,Od čega je djed otišao u sanatorij odmarati?,Djed je otišao u sanatorij odmarati od gužve i buke..,ai,,26,30,,,
,Spremanje,canvas.Screen,2_25_2,,,,,,skipped,,409319.2999999821,,,409317.09999999404,409320.09999999404,2024-07-31T14:57:23.520Z,409410,TYqkLYL0P8,incremental,anketa,6645cf40bc81b65c5faccf1d,participant,hcpib7dulz9yqhc1,,,,,Od čega je djed otišao u sanatorij odmarati?,Djed je otišao u sanatorij odmarati od gužve i buke..,ai,,26,30,,,
,Question form,html.Form,2_25_3,,,,,,skipped,,409320.7999999821,,,409317.09999999404,409321.6999999881,2024-07-31T14:57:23.522Z,409410,TYqkLYL0P8,incremental,anketa,6645cf40bc81b65c5faccf1d,participant,hcpib7dulz9yqhc1,,,,,Od čega je djed otišao u sanatorij odmarati?,Djed je otišao u sanatorij odmarati od gužve i buke..,ai,,26,30,,,
,Answer indication,canvas.Screen,2_25_4,,,,,,skipped,,409331.40000000596,,,409317.09999999404,409332.40000000596,2024-07-31T14:57:23.532Z,409410,TYqkLYL0P8,incremental,anketa,6645cf40bc81b65c5faccf1d,participant,hcpib7dulz9yqhc1,,,,,Od čega je djed otišao u sanatorij odmarati?,Djed je otišao u sanatorij odmarati od gužve i buke..,ai,,26,30,,,
,inter-stimulus,canvas.Screen,2_25_5,,,,,,response,1077.4000000059605,409333.1999999881,409396.094,409410,410487.40000000596,410704.90000000596,2024-07-31T14:57:24.905Z,410836.6,TYqkLYL0P8,incremental,anketa,6645cf40bc81b65c5faccf1d,participant,hcpib7dulz9yqhc1,,,mousedown,,Od čega je djed otišao u sanatorij odmarati?,Djed je otišao u sanatorij odmarati od gužve i buke..,ai,,26,30,,,
,Sequence,flow.Sequence,2_25,,,,,,completion,8995.90000000596,401395.5,401467.004,401491.5,410487.40000000596,410706.59999999404,2024-07-31T14:57:24.906Z,410836.6,TYqkLYL0P8,incremental,anketa,6645cf40bc81b65c5faccf1d,participant,hcpib7dulz9yqhc1,,,,,Od čega je djed otišao u sanatorij odmarati?,Djed je otišao u sanatorij odmarati od gužve i buke..,ai,,26,30,,,
,context,canvas.Screen,2_26_0_0,,,,,,response,1334.8000000059837,410708.5,410826.61,410836.6,412171.40000000596,412376.1999999881,2024-07-31T14:57:26.576Z,412443.1,TYqkLYL0P8,incremental,anketa,6645cf40bc81b65c5faccf1d,participant,hcpib7dulz9yqhc1,,,click,,O čemu je Ivo cijelu večer pričao?,Ivo je cijelu večer pričao o autima.,gf,,,47,,,
,Timer frame,html.Frame,2_26_0,,,,,,,1540.4000000000233,410707.40000000596,410826.61,410836.6,412377,412377.59999999404,2024-07-31T14:57:26.577Z,412443.1,TYqkLYL0P8,incremental,anketa,6645cf40bc81b65c5faccf1d,participant,hcpib7dulz9yqhc1,,,,,O čemu je Ivo cijelu večer pričao?,Ivo je cijelu večer pričao o autima.,gf,,,47,,,
,stimulus,canvas.Screen,2_26_1_0,,,,,,response,2685.9000000000233,412379.59999999404,412428.728,412443.1,415129,415346,2024-07-31T14:57:29.546Z,415496.89,TYqkLYL0P8,incremental,anketa,6645cf40bc81b65c5faccf1d,participant,hcpib7dulz9yqhc1,,7,click @7,,O čemu je Ivo cijelu večer pričao?,Ivo je cijelu večer pričao o autima.,gf,,,47,,,
,Timer frame,html.Frame,2_26_1,,,,,,,2903.699999982142,412378.09999999404,412428.728,412443.1,415346.7999999821,415347.5,2024-07-31T14:57:29.547Z,415496.89,TYqkLYL0P8,incremental,anketa,6645cf40bc81b65c5faccf1d,participant,hcpib7dulz9yqhc1,,,,,O čemu je Ivo cijelu večer pričao?,Ivo je cijelu večer pričao o autima.,gf,,,47,,,
,Spremanje,canvas.Screen,2_26_2,,,,,,skipped,,415348.2999999821,,,415346.7999999821,415348.7999999821,2024-07-31T14:57:29.549Z,415496.89,TYqkLYL0P8,incremental,anketa,6645cf40bc81b65c5faccf1d,participant,hcpib7dulz9yqhc1,,,,,O čemu je Ivo cijelu večer pričao?,Ivo je cijelu večer pričao o autima.,gf,,,47,,,
,Question form,html.Form,2_26_3,,,,,,skipped,,415349.2999999821,,,415346.7999999821,415350,2024-07-31T14:57:29.550Z,415496.89,TYqkLYL0P8,incremental,anketa,6645cf40bc81b65c5faccf1d,participant,hcpib7dulz9yqhc1,,,,,O čemu je Ivo cijelu večer pričao?,Ivo je cijelu večer pričao o autima.,gf,,,47,,,
,Answer indication,canvas.Screen,2_26_4,,,,,,skipped,,415385.40000000596,,,415346.7999999821,415386.40000000596,2024-07-31T14:57:29.586Z,415496.89,TYqkLYL0P8,incremental,anketa,6645cf40bc81b65c5faccf1d,participant,hcpib7dulz9yqhc1,,,,,O čemu je Ivo cijelu večer pričao?,Ivo je cijelu večer pričao o autima.,gf,,,47,,,
,inter-stimulus,canvas.Screen,2_26_5,,,,,,response,1215.5100000059465,415387.2999999821,415496.89,415496.89,416712.40000000596,416941.6999999881,2024-07-31T14:57:31.141Z,417037,TYqkLYL0P8,incremental,anketa,6645cf40bc81b65c5faccf1d,participant,hcpib7dulz9yqhc1,,,mousedown,,O čemu je Ivo cijelu večer pričao?,Ivo je cijelu večer pričao o autima.,gf,,,47,,,
,Sequence,flow.Sequence,2_26,,,,,,completion,5875.800000005984,410707.1999999881,410826.61,410836.6,416712.40000000596,416943.90000000596,2024-07-31T14:57:31.144Z,417037,TYqkLYL0P8,incremental,anketa,6645cf40bc81b65c5faccf1d,participant,hcpib7dulz9yqhc1,,,,,O čemu je Ivo cijelu večer pričao?,Ivo je cijelu večer pričao o autima.,gf,,,47,,,
,context,canvas.Screen,2_27_0_0,,,,,,response,1589,416945.90000000596,417030.162,417037,418626,418849.90000000596,2024-07-31T14:57:33.050Z,418985.2,TYqkLYL0P8,incremental,anketa,6645cf40bc81b65c5faccf1d,participant,hcpib7dulz9yqhc1,,,click,,Jedna vrlo duboka tamo postoji pećina.,Tamo postoji jedna vrlo duboka pećina.,lbc,,,37,,,
,Timer frame,html.Frame,2_27_0,,,,,,,1814,416944.7999999821,417030.162,417037,418851,418852.1999999881,2024-07-31T14:57:33.052Z,418985.2,TYqkLYL0P8,incremental,anketa,6645cf40bc81b65c5faccf1d,participant,hcpib7dulz9yqhc1,,,,,Jedna vrlo duboka tamo postoji pećina.,Tamo postoji jedna vrlo duboka pećina.,lbc,,,37,,,
,stimulus,canvas.Screen,2_27_1_0,,,,,,response,2381.2999999999884,418855.09999999404,418837.6,418985.2,421366.5,421569.7999999821,2024-07-31T14:57:35.770Z,421657.8,TYqkLYL0P8,incremental,anketa,6645cf40bc81b65c5faccf1d,participant,hcpib7dulz9yqhc1,,5,click @5,,Jedna vrlo duboka tamo postoji pećina.,Tamo postoji jedna vrlo duboka pećina.,lbc,,,37,,,
,Timer frame,html.Frame,2_27_1,,,,,,,2585.599999982107,418853.1999999881,418837.6,418985.2,421570.7999999821,421572.09999999404,2024-07-31T14:57:35.772Z,421657.8,TYqkLYL0P8,incremental,anketa,6645cf40bc81b65c5faccf1d,participant,hcpib7dulz9yqhc1,,,,,Jedna vrlo duboka tamo postoji pećina.,Tamo postoji jedna vrlo duboka pećina.,lbc,,,37,,,
,Spremanje,canvas.Screen,2_27_2,,,,,,skipped,,421572.90000000596,,,421570.7999999821,421573.2999999821,2024-07-31T14:57:35.773Z,421657.8,TYqkLYL0P8,incremental,anketa,6645cf40bc81b65c5faccf1d,participant,hcpib7dulz9yqhc1,,,,,Jedna vrlo duboka tamo postoji pećina.,Tamo postoji jedna vrlo duboka pećina.,lbc,,,37,,,
,Question form,html.Form,2_27_3,,,,,,skipped,,421573.7999999821,,,421570.7999999821,421574.5,2024-07-31T14:57:35.774Z,421657.8,TYqkLYL0P8,incremental,anketa,6645cf40bc81b65c5faccf1d,participant,hcpib7dulz9yqhc1,,,,,Jedna vrlo duboka tamo postoji pećina.,Tamo postoji jedna vrlo duboka pećina.,lbc,,,37,,,
,Answer indication,canvas.Screen,2_27_4,,,,,,skipped,,421582.59999999404,,,421570.7999999821,421583.5,2024-07-31T14:57:35.783Z,421657.8,TYqkLYL0P8,incremental,anketa,6645cf40bc81b65c5faccf1d,participant,hcpib7dulz9yqhc1,,,,,Jedna vrlo duboka tamo postoji pećina.,Tamo postoji jedna vrlo duboka pećina.,lbc,,,37,,,
,inter-stimulus,canvas.Screen,2_27_5,,,,,,response,1305.100000005972,421584.1999999881,421645.956,421657.8,422962.90000000596,423170.7999999821,2024-07-31T14:57:37.371Z,423280.4,TYqkLYL0P8,incremental,anketa,6645cf40bc81b65c5faccf1d,participant,hcpib7dulz9yqhc1,,,mousedown,,Jedna vrlo duboka tamo postoji pećina.,Tamo postoji jedna vrlo duboka pećina.,lbc,,,37,,,
,Sequence,flow.Sequence,2_27,,,,,,completion,5925.9000000059605,416944.5,417030.162,417037,422962.90000000596,423173.5,2024-07-31T14:57:37.373Z,423280.4,TYqkLYL0P8,incremental,anketa,6645cf40bc81b65c5faccf1d,participant,hcpib7dulz9yqhc1,,,,,Jedna vrlo duboka tamo postoji pećina.,Tamo postoji jedna vrlo duboka pećina.,lbc,,,37,,,
,context,canvas.Screen,2_28_0_0,,,,,,response,1671.5000000059372,423175.40000000596,423274.402,423280.4,424951.90000000596,425181.59999999404,2024-07-31T14:57:39.381Z,425247.3,TYqkLYL0P8,incremental,anketa,6645cf40bc81b65c5faccf1d,participant,hcpib7dulz9yqhc1,,,click,,Nešto se mu otac za punoljetnost poklonio.,Otac mu je za punoljetnost poklonio crveni Ferrari.,nf,,,42,,,
,Timer frame,html.Frame,2_28_0,,,,,,,1901.7999999880558,423174.59999999404,423274.402,423280.4,425182.1999999881,425182.7999999821,2024-07-31T14:57:39.383Z,425247.3,TYqkLYL0P8,incremental,anketa,6645cf40bc81b65c5faccf1d,participant,hcpib7dulz9yqhc1,,,,,Nešto se mu otac za punoljetnost poklonio.,Otac mu je za punoljetnost poklonio crveni Ferrari.,nf,,,42,,,
,stimulus,canvas.Screen,2_28_1_0,,,,,,response,2562.2000000000116,425183.7999999821,425217.26,425247.3,427809.5,428029.59999999404,2024-07-31T14:57:42.229Z,428132.2,TYqkLYL0P8,incremental,anketa,6645cf40bc81b65c5faccf1d,participant,hcpib7dulz9yqhc1,,1,click @1,,Nešto se mu otac za punoljetnost poklonio.,Otac mu je za punoljetnost poklonio crveni Ferrari.,nf,,,42,,,
,Timer frame,html.Frame,2_28_1,,,,,,,2782.799999994051,425183.1999999881,425217.26,425247.3,428030.09999999404,428030.59999999404,2024-07-31T14:57:42.230Z,428132.2,TYqkLYL0P8,incremental,anketa,6645cf40bc81b65c5faccf1d,participant,hcpib7dulz9yqhc1,,,,,Nešto se mu otac za punoljetnost poklonio.,Otac mu je za punoljetnost poklonio crveni Ferrari.,nf,,,42,,,
