meta,sender,sender_type,sender_id,age,education,croatian-knowledge,occupation,,ended_on,duration,time_run,time_render,time_show,time_end,time_commit,timestamp,time_switch,openLabId,type,task,project,status,code,confirmationCode,response,response_action,answer_true,stimulus,context,island_type,transfer_s,transfer_c,id,right_answer,question,change_date
"{""labjs_version"":""20.2.4"",""labjs_build"":{""flavor"":""production"",""commit"":""f5b4a49f956347addd546a832a3327688c2c0fef""},""location"":""https://open-lab.online/test/anketa/66a94c41e3bab725623a426f"",""userAgent"":""Mozilla/5.0 (iPhone; CPU iPhone OS 17_5_1 like Mac OS X) AppleWebKit/605.1.15 (KHTML, like Gecko) Version/17.5 Mobile/15E148 Safari/604.1"",""platform"":""iPhone"",""language"":""hr-HR"",""locale"":""hr-HR"",""timeZone"":""Europe/Zagreb"",""timezoneOffset"":-120,""screen_width"":390,""screen_height"":844,""scroll_width"":980,""scroll_height"":1636,""window_innerWidth"":980,""window_innerHeight"":1684,""devicePixelRatio"":3}",Demography form,html.Form,0,27,master,mother-tongue,Komercijalist u prodaji,,form submission,27375.000000000004,1386.0000000000002,1395,1426,28801.000000000004,28802,2024-07-30T20:26:05.772Z,28872,vgGmJ1sEeR,incremental,anketa,6645cf40bc81b65c5faccf1d,participant,hcpib7dulz8vawka,879141,,,,,,,,,,,,
,context,canvas.Screen,1_0,,,,,,response,3801,28803,28812,28872,32673,32674,2024-07-30T20:26:09.644Z,32850,vgGmJ1sEeR,incremental,anketa,6645cf40bc81b65c5faccf1d,participant,hcpib7dulz8vawka,,,click,,,,,,,,,,
"{""labjs_version"":""20.2.4"",""labjs_build"":{""flavor"":""production"",""commit"":""f5b4a49f956347addd546a832a3327688c2c0fef""},""location"":""https://open-lab.online/test/anketa/66a94c41e3bab725623a426f"",""userAgent"":""Mozilla/5.0 (iPhone; CPU iPhone OS 17_5_1 like Mac OS X) AppleWebKit/605.1.15 (KHTML, like Gecko) Version/17.5 Mobile/15E148 Safari/604.1"",""platform"":""iPhone"",""language"":""hr-HR"",""locale"":""hr-HR"",""timeZone"":""Europe/Zagreb"",""timezoneOffset"":-120,""screen_width"":390,""screen_height"":844,""scroll_width"":980,""scroll_height"":1636,""window_innerWidth"":980,""window_innerHeight"":1684,""devicePixelRatio"":3}",Demography form,html.Form,0,27,master,mother-tongue,Komercijalist u prodaji,,form submission,13965,1342,1346,1387,15352,15352,2024-07-30T20:26:31.206Z,15427,vgGmJ1sEeR,incremental,anketa,6645cf40bc81b65c5faccf1d,participant,hcpib7dulz8vawka,879141,,,,,,,,,,,,
,context,canvas.Screen,1_0,,,,,,response,6005.000000000004,15352,15355,15427,21432.000000000004,21434,2024-07-30T20:26:37.288Z,21478,vgGmJ1sEeR,incremental,anketa,6645cf40bc81b65c5faccf1d,participant,hcpib7dulz8vawka,,,click,,,,,,,,,,
,stimulus,canvas.Screen,1_1,,,,,,response,12225,21434,21436,21478,33703,33705,2024-07-30T20:26:49.559Z,33744,vgGmJ1sEeR,incremental,anketa,6645cf40bc81b65c5faccf1d,participant,hcpib7dulz8vawka,,7,click @7,,,,,,,,,,
,inter-stimulus,canvas.Screen,1_2,,,,,,response,11171,33706,33711,33744,44915,44916.00000000001,2024-07-30T20:27:00.770Z,44976,vgGmJ1sEeR,incremental,anketa,6645cf40bc81b65c5faccf1d,participant,hcpib7dulz8vawka,,,mousedown,,,,,,,,,,
,context,canvas.Screen,1_3,,,,,,response,3950,44916.00000000001,44918,44976,48926,48927,2024-07-30T20:27:04.781Z,48988,vgGmJ1sEeR,incremental,anketa,6645cf40bc81b65c5faccf1d,participant,hcpib7dulz8vawka,,,click,,,,,,,,,,
,stimulus,canvas.Screen,1_4,,,,,,response,9214,48927,48932,48988,58202,58203,2024-07-30T20:27:14.057Z,58247,vgGmJ1sEeR,incremental,anketa,6645cf40bc81b65c5faccf1d,participant,hcpib7dulz8vawka,,1,click @1,,,,,,,,,,
,inter-stimulus,canvas.Screen,1_5,,,,,,response,4049,58203,58205,58247,62296,62297.00000000001,2024-07-30T20:27:18.151Z,62358,vgGmJ1sEeR,incremental,anketa,6645cf40bc81b65c5faccf1d,participant,hcpib7dulz8vawka,,,mousedown,,,,,,,,,,
,context,canvas.Screen,1_6,,,,,,response,3666,62297.00000000001,62303,62358,66024,66025,2024-07-30T20:27:21.879Z,66068,vgGmJ1sEeR,incremental,anketa,6645cf40bc81b65c5faccf1d,participant,hcpib7dulz8vawka,,,click,,,,,,,,,,
,stimulus,canvas.Screen,1_7_0,,,,,,response,11120,66027,66029,66068,77188,77191,2024-07-30T20:27:33.045Z,77267,vgGmJ1sEeR,incremental,anketa,6645cf40bc81b65c5faccf1d,participant,hcpib7dulz8vawka,,7,click @7,,,,,,,,,,
,Timer frame,html.Frame,1_7,,,,,,,11123,66025,66029,66068,77191,77191,2024-07-30T20:27:33.046Z,77267,vgGmJ1sEeR,incremental,anketa,6645cf40bc81b65c5faccf1d,participant,hcpib7dulz8vawka,,,,,,,,,,,,,
,Screen,canvas.Screen,1_8,,,,,,response,9614,77192,77198,77267,86881,86882,2024-07-30T20:27:42.736Z,86910,vgGmJ1sEeR,incremental,anketa,6645cf40bc81b65c5faccf1d,participant,hcpib7dulz8vawka,,,mousedown,,,,,,,,,,
,Question form,html.Form,1_9,,,,,,form submission,6278,86882,86888,86910,93188,93189,2024-07-30T20:27:49.043Z,93245,vgGmJ1sEeR,incremental,anketa,6645cf40bc81b65c5faccf1d,participant,hcpib7dulz8vawka,,,,Zrele,,,,,,,,,
,Screen,canvas.Screen,1_10,,,,,,response,1677,93190,93192,93245,94922,94929,2024-07-30T20:27:50.783Z,94983,vgGmJ1sEeR,incremental,anketa,6645cf40bc81b65c5faccf1d,participant,hcpib7dulz8vawka,,,mousedown,,,,,,,,,,
,inter-stimulus,canvas.Screen,1_11,,,,,,response,2746,94931,94937,94983,97729,97731.00000000001,2024-07-30T20:27:53.585Z,97791,vgGmJ1sEeR,incremental,anketa,6645cf40bc81b65c5faccf1d,participant,hcpib7dulz8vawka,,,mousedown,,,,,,,,,,
,First stimuli,flow.Sequence,1,,,,,,completion,82302,15352,15355,15427,97729,97732,2024-07-30T20:27:53.586Z,97791,vgGmJ1sEeR,incremental,anketa,6645cf40bc81b65c5faccf1d,participant,hcpib7dulz8vawka,,,,,,,,,,,,,
,context,canvas.Screen,2_0_0_0,,,,,,response,5288.000000000015,97734.00000000001,97745,97791,103079.00000000001,103081,2024-07-30T20:27:58.935Z,103139,vgGmJ1sEeR,incremental,anketa,6645cf40bc81b65c5faccf1d,participant,hcpib7dulz8vawka,,,click,,Petar i Mara su jučer otišli u kino pogledati dobru komediju..,Jučer su Petar i Mara otišli u kino pogledati dobru komediju..,gf,35,35,46,,,
,Timer frame,html.Frame,2_0_0,,,,,,,5290,97733,97745,97791,103081,103082.00000000001,2024-07-30T20:27:58.936Z,103139,vgGmJ1sEeR,incremental,anketa,6645cf40bc81b65c5faccf1d,participant,hcpib7dulz8vawka,,,,,Petar i Mara su jučer otišli u kino pogledati dobru komediju..,Jučer su Petar i Mara otišli u kino pogledati dobru komediju..,gf,35,35,46,,,
,stimulus,canvas.Screen,2_0_1_0,,,,,,response,5738,103082.00000000001,103084,103139,108877,108879,2024-07-30T20:28:04.733Z,108922,vgGmJ1sEeR,incremental,anketa,6645cf40bc81b65c5faccf1d,participant,hcpib7dulz8vawka,,7,click @7,,Petar i Mara su jučer otišli u kino pogledati dobru komediju..,Jučer su Petar i Mara otišli u kino pogledati dobru komediju..,gf,35,35,46,,,
,Timer frame,html.Frame,2_0_1,,,,,,,5740,103082.00000000001,103084,103139,108879,108879,2024-07-30T20:28:04.733Z,108922,vgGmJ1sEeR,incremental,anketa,6645cf40bc81b65c5faccf1d,participant,hcpib7dulz8vawka,,,,,Petar i Mara su jučer otišli u kino pogledati dobru komediju..,Jučer su Petar i Mara otišli u kino pogledati dobru komediju..,gf,35,35,46,,,
,Spremanje,canvas.Screen,2_0_2,,,,,,skipped,,108880,,,108879,108880,2024-07-30T20:28:04.734Z,108922,vgGmJ1sEeR,incremental,anketa,6645cf40bc81b65c5faccf1d,participant,hcpib7dulz8vawka,,,,,Petar i Mara su jučer otišli u kino pogledati dobru komediju..,Jučer su Petar i Mara otišli u kino pogledati dobru komediju..,gf,35,35,46,,,
,Question form,html.Form,2_0_3,,,,,,skipped,,108880,,,108879,108880,2024-07-30T20:28:04.734Z,108922,vgGmJ1sEeR,incremental,anketa,6645cf40bc81b65c5faccf1d,participant,hcpib7dulz8vawka,,,,,Petar i Mara su jučer otišli u kino pogledati dobru komediju..,Jučer su Petar i Mara otišli u kino pogledati dobru komediju..,gf,35,35,46,,,
,Answer indication,canvas.Screen,2_0_4,,,,,,skipped,,108889,,,108879,108889,2024-07-30T20:28:04.743Z,108922,vgGmJ1sEeR,incremental,anketa,6645cf40bc81b65c5faccf1d,participant,hcpib7dulz8vawka,,,,,Petar i Mara su jučer otišli u kino pogledati dobru komediju..,Jučer su Petar i Mara otišli u kino pogledati dobru komediju..,gf,35,35,46,,,
,inter-stimulus,canvas.Screen,2_0_5,,,,,,response,741,108889,108891,108922,109663,109664,2024-07-30T20:28:05.519Z,109725,vgGmJ1sEeR,incremental,anketa,6645cf40bc81b65c5faccf1d,participant,hcpib7dulz8vawka,,,mousedown,,Petar i Mara su jučer otišli u kino pogledati dobru komediju..,Jučer su Petar i Mara otišli u kino pogledati dobru komediju..,gf,35,35,46,,,
,Sequence,flow.Sequence,2_0,,,,,,completion,11872,97733,97745,97791,109663,109665,2024-07-30T20:28:05.519Z,109725,vgGmJ1sEeR,incremental,anketa,6645cf40bc81b65c5faccf1d,participant,hcpib7dulz8vawka,,,,,Petar i Mara su jučer otišli u kino pogledati dobru komediju..,Jučer su Petar i Mara otišli u kino pogledati dobru komediju..,gf,35,35,46,,,
,context,canvas.Screen,2_1_0_0,,,,,,response,3381.0000000000146,109665,109668,109725,113106.00000000001,113107,2024-07-30T20:28:08.961Z,113168,vgGmJ1sEeR,incremental,anketa,6645cf40bc81b65c5faccf1d,participant,hcpib7dulz8vawka,,,click,,Odakle si pješke ići prema Zadru?,Ideš pješke od Splita prema Zadru.,nf,,,44,,,
,Timer frame,html.Frame,2_1_0,,,,,,,3382,109665,109668,109725,113107,113107,2024-07-30T20:28:08.961Z,113168,vgGmJ1sEeR,incremental,anketa,6645cf40bc81b65c5faccf1d,participant,hcpib7dulz8vawka,,,,,Odakle si pješke ići prema Zadru?,Ideš pješke od Splita prema Zadru.,nf,,,44,,,
,stimulus,canvas.Screen,2_1_1_0,,,,,,response,2044,113108,113114,113168,115212,115213.00000000001,2024-07-30T20:28:11.067Z,115274,vgGmJ1sEeR,incremental,anketa,6645cf40bc81b65c5faccf1d,participant,hcpib7dulz8vawka,,1,click @1,,Odakle si pješke ići prema Zadru?,Ideš pješke od Splita prema Zadru.,nf,,,44,,,
,Timer frame,html.Frame,2_1_1,,,,,,,2046,113107,113114,113168,115214,115214,2024-07-30T20:28:11.068Z,115274,vgGmJ1sEeR,incremental,anketa,6645cf40bc81b65c5faccf1d,participant,hcpib7dulz8vawka,,,,,Odakle si pješke ići prema Zadru?,Ideš pješke od Splita prema Zadru.,nf,,,44,,,
,Spremanje,canvas.Screen,2_1_2,,,,,,skipped,,115214,,,115214,115214,2024-07-30T20:28:11.068Z,115274,vgGmJ1sEeR,incremental,anketa,6645cf40bc81b65c5faccf1d,participant,hcpib7dulz8vawka,,,,,Odakle si pješke ići prema Zadru?,Ideš pješke od Splita prema Zadru.,nf,,,44,,,
,Question form,html.Form,2_1_3,,,,,,skipped,,115214,,,115214,115215,2024-07-30T20:28:11.069Z,115274,vgGmJ1sEeR,incremental,anketa,6645cf40bc81b65c5faccf1d,participant,hcpib7dulz8vawka,,,,,Odakle si pješke ići prema Zadru?,Ideš pješke od Splita prema Zadru.,nf,,,44,,,
,Answer indication,canvas.Screen,2_1_4,,,,,,skipped,,115217,,,115214,115217,2024-07-30T20:28:11.072Z,115274,vgGmJ1sEeR,incremental,anketa,6645cf40bc81b65c5faccf1d,participant,hcpib7dulz8vawka,,,,,Odakle si pješke ići prema Zadru?,Ideš pješke od Splita prema Zadru.,nf,,,44,,,
,inter-stimulus,canvas.Screen,2_1_5,,,,,,response,11554,115218,115219,115274,126828,126829.00000000001,2024-07-30T20:28:22.683Z,126874,vgGmJ1sEeR,incremental,anketa,6645cf40bc81b65c5faccf1d,participant,hcpib7dulz8vawka,,,mousedown,,Odakle si pješke ići prema Zadru?,Ideš pješke od Splita prema Zadru.,nf,,,44,,,
,Sequence,flow.Sequence,2_1,,,,,,completion,17103,109665,109668,109725,126828,126830,2024-07-30T20:28:22.684Z,126874,vgGmJ1sEeR,incremental,anketa,6645cf40bc81b65c5faccf1d,participant,hcpib7dulz8vawka,,,,,Odakle si pješke ići prema Zadru?,Ideš pješke od Splita prema Zadru.,nf,,,44,,,
,context,canvas.Screen,2_2_0_0,,,,,,response,3128.0000000000146,126831,126833,126874,130002.00000000001,130003.00000000001,2024-07-30T20:28:25.857Z,130048,vgGmJ1sEeR,incremental,anketa,6645cf40bc81b65c5faccf1d,participant,hcpib7dulz8vawka,,,click,,Što bismo voljeli da Drago napravi bez prigovora??,Voljeli bismo da Drago opere auto bez prigovora..,si,26,22,16,,,
,Timer frame,html.Frame,2_2_0,,,,,,,3129.0000000000146,126831,126833,126874,130003.00000000001,130003.99999999999,2024-07-30T20:28:25.858Z,130048,vgGmJ1sEeR,incremental,anketa,6645cf40bc81b65c5faccf1d,participant,hcpib7dulz8vawka,,,,,Što bismo voljeli da Drago napravi bez prigovora??,Voljeli bismo da Drago opere auto bez prigovora..,si,26,22,16,,,
,stimulus,canvas.Screen,2_2_1_0,,,,,,response,4767,130003.99999999999,130006,130048,134815,134816,2024-07-30T20:28:30.670Z,134861,vgGmJ1sEeR,incremental,anketa,6645cf40bc81b65c5faccf1d,participant,hcpib7dulz8vawka,,5,click @5,,Što bismo voljeli da Drago napravi bez prigovora??,Voljeli bismo da Drago opere auto bez prigovora..,si,26,22,16,,,
,Timer frame,html.Frame,2_2_1,,,,,,,4768,130003.99999999999,130006,130048,134816,134817,2024-07-30T20:28:30.671Z,134861,vgGmJ1sEeR,incremental,anketa,6645cf40bc81b65c5faccf1d,participant,hcpib7dulz8vawka,,,,,Što bismo voljeli da Drago napravi bez prigovora??,Voljeli bismo da Drago opere auto bez prigovora..,si,26,22,16,,,
,Spremanje,canvas.Screen,2_2_2,,,,,,skipped,,134817,,,134816,134817,2024-07-30T20:28:30.671Z,134861,vgGmJ1sEeR,incremental,anketa,6645cf40bc81b65c5faccf1d,participant,hcpib7dulz8vawka,,,,,Što bismo voljeli da Drago napravi bez prigovora??,Voljeli bismo da Drago opere auto bez prigovora..,si,26,22,16,,,
,Question form,html.Form,2_2_3,,,,,,skipped,,134817,,,134816,134817,2024-07-30T20:28:30.671Z,134861,vgGmJ1sEeR,incremental,anketa,6645cf40bc81b65c5faccf1d,participant,hcpib7dulz8vawka,,,,,Što bismo voljeli da Drago napravi bez prigovora??,Voljeli bismo da Drago opere auto bez prigovora..,si,26,22,16,,,
,Answer indication,canvas.Screen,2_2_4,,,,,,skipped,,134820,,,134816,134820,2024-07-30T20:28:30.674Z,134861,vgGmJ1sEeR,incremental,anketa,6645cf40bc81b65c5faccf1d,participant,hcpib7dulz8vawka,,,,,Što bismo voljeli da Drago napravi bez prigovora??,Voljeli bismo da Drago opere auto bez prigovora..,si,26,22,16,,,
,inter-stimulus,canvas.Screen,2_2_5,,,,,,response,740,134820,134821,134861,135601,135602,2024-07-30T20:28:31.456Z,135663,vgGmJ1sEeR,incremental,anketa,6645cf40bc81b65c5faccf1d,participant,hcpib7dulz8vawka,,,mousedown,,Što bismo voljeli da Drago napravi bez prigovora??,Voljeli bismo da Drago opere auto bez prigovora..,si,26,22,16,,,
,Sequence,flow.Sequence,2_2,,,,,,completion,8727,126830,126833,126874,135601,135603,2024-07-30T20:28:31.457Z,135663,vgGmJ1sEeR,incremental,anketa,6645cf40bc81b65c5faccf1d,participant,hcpib7dulz8vawka,,,,,Što bismo voljeli da Drago napravi bez prigovora??,Voljeli bismo da Drago opere auto bez prigovora..,si,26,22,16,,,
,context,canvas.Screen,2_3_0_0,,,,,,response,2981,135603,135605,135663,138644,138645,2024-07-30T20:28:34.499Z,138705,vgGmJ1sEeR,incremental,anketa,6645cf40bc81b65c5faccf1d,participant,hcpib7dulz8vawka,,,click,,Prije čega dobro je da smo stigli?,Dobro je da smo stigli prije polaska vlaka.,si,,,15,,,
,Timer frame,html.Frame,2_3_0,,,,,,,2983.000000000029,135603,135605,135663,138646.00000000003,138646.00000000003,2024-07-30T20:28:34.500Z,138705,vgGmJ1sEeR,incremental,anketa,6645cf40bc81b65c5faccf1d,participant,hcpib7dulz8vawka,,,,,Prije čega dobro je da smo stigli?,Dobro je da smo stigli prije polaska vlaka.,si,,,15,,,
,stimulus,canvas.Screen,2_3_1_0,,,,,,response,2962,138646.00000000003,138648,138705,141667,141668,2024-07-30T20:28:37.522Z,141713,vgGmJ1sEeR,incremental,anketa,6645cf40bc81b65c5faccf1d,participant,hcpib7dulz8vawka,,1,click @1,,Prije čega dobro je da smo stigli?,Dobro je da smo stigli prije polaska vlaka.,si,,,15,,,
,Timer frame,html.Frame,2_3_1,,,,,,,2964,138646.00000000003,138648,138705,141669,141669,2024-07-30T20:28:37.523Z,141713,vgGmJ1sEeR,incremental,anketa,6645cf40bc81b65c5faccf1d,participant,hcpib7dulz8vawka,,,,,Prije čega dobro je da smo stigli?,Dobro je da smo stigli prije polaska vlaka.,si,,,15,,,
,Spremanje,canvas.Screen,2_3_2,,,,,,skipped,,141669,,,141669,141669,2024-07-30T20:28:37.523Z,141713,vgGmJ1sEeR,incremental,anketa,6645cf40bc81b65c5faccf1d,participant,hcpib7dulz8vawka,,,,,Prije čega dobro je da smo stigli?,Dobro je da smo stigli prije polaska vlaka.,si,,,15,,,
,Question form,html.Form,2_3_3,,,,,,skipped,,141669,,,141669,141670.00000000003,2024-07-30T20:28:37.524Z,141713,vgGmJ1sEeR,incremental,anketa,6645cf40bc81b65c5faccf1d,participant,hcpib7dulz8vawka,,,,,Prije čega dobro je da smo stigli?,Dobro je da smo stigli prije polaska vlaka.,si,,,15,,,
,Answer indication,canvas.Screen,2_3_4,,,,,,skipped,,141673,,,141669,141673,2024-07-30T20:28:37.527Z,141713,vgGmJ1sEeR,incremental,anketa,6645cf40bc81b65c5faccf1d,participant,hcpib7dulz8vawka,,,,,Prije čega dobro je da smo stigli?,Dobro je da smo stigli prije polaska vlaka.,si,,,15,,,
,inter-stimulus,canvas.Screen,2_3_5,,,,,,response,1024,141673,141674,141713,142737,142738,2024-07-30T20:28:38.592Z,142783,vgGmJ1sEeR,incremental,anketa,6645cf40bc81b65c5faccf1d,participant,hcpib7dulz8vawka,,,mousedown,,Prije čega dobro je da smo stigli?,Dobro je da smo stigli prije polaska vlaka.,si,,,15,,,
,Sequence,flow.Sequence,2_3,,,,,,completion,7074,135603,135605,135663,142737,142739,2024-07-30T20:28:38.593Z,142783,vgGmJ1sEeR,incremental,anketa,6645cf40bc81b65c5faccf1d,participant,hcpib7dulz8vawka,,,,,Prije čega dobro je da smo stigli?,Dobro je da smo stigli prije polaska vlaka.,si,,,15,,,
,context,canvas.Screen,2_4_0_0,,,,,,response,2360,142740,142741,142783,145143,145144,2024-07-30T20:28:40.998Z,145189,vgGmJ1sEeR,incremental,anketa,6645cf40bc81b65c5faccf1d,participant,hcpib7dulz8vawka,,,click,,Što želiš da pronaći nije bilo teško?,Pronaći apoteku nije bilo teško.,si,,,14,,,2305
,Timer frame,html.Frame,2_4_0,,,,,,,2362,142739,142741,142783,145145,145145,2024-07-30T20:28:40.999Z,145189,vgGmJ1sEeR,incremental,anketa,6645cf40bc81b65c5faccf1d,participant,hcpib7dulz8vawka,,,,,Što želiš da pronaći nije bilo teško?,Pronaći apoteku nije bilo teško.,si,,,14,,,2305
,stimulus,canvas.Screen,2_4_1_0,,,,,,response,2262,145146.00000000003,145148,145189,147451,147452,2024-07-30T20:28:43.306Z,147495,vgGmJ1sEeR,incremental,anketa,6645cf40bc81b65c5faccf1d,participant,hcpib7dulz8vawka,,1,click @1,,Što želiš da pronaći nije bilo teško?,Pronaći apoteku nije bilo teško.,si,,,14,,,2305
,Timer frame,html.Frame,2_4_1,,,,,,,2264,145145,145148,145189,147453,147453,2024-07-30T20:28:43.307Z,147495,vgGmJ1sEeR,incremental,anketa,6645cf40bc81b65c5faccf1d,participant,hcpib7dulz8vawka,,,,,Što želiš da pronaći nije bilo teško?,Pronaći apoteku nije bilo teško.,si,,,14,,,2305
,Spremanje,canvas.Screen,2_4_2,,,,,,skipped,,147453,,,147453,147454,2024-07-30T20:28:43.308Z,147495,vgGmJ1sEeR,incremental,anketa,6645cf40bc81b65c5faccf1d,participant,hcpib7dulz8vawka,,,,,Što želiš da pronaći nije bilo teško?,Pronaći apoteku nije bilo teško.,si,,,14,,,2305
,Question form,html.Form,2_4_3,,,,,,skipped,,147454,,,147453,147454,2024-07-30T20:28:43.308Z,147495,vgGmJ1sEeR,incremental,anketa,6645cf40bc81b65c5faccf1d,participant,hcpib7dulz8vawka,,,,,Što želiš da pronaći nije bilo teško?,Pronaći apoteku nije bilo teško.,si,,,14,,,2305
,Answer indication,canvas.Screen,2_4_4,,,,,,skipped,,147456.00000000003,,,147453,147456.00000000003,2024-07-30T20:28:43.310Z,147495,vgGmJ1sEeR,incremental,anketa,6645cf40bc81b65c5faccf1d,participant,hcpib7dulz8vawka,,,,,Što želiš da pronaći nije bilo teško?,Pronaći apoteku nije bilo teško.,si,,,14,,,2305
,inter-stimulus,canvas.Screen,2_4_5,,,,,,response,1024,147456.00000000003,147457,147495,148519,148520,2024-07-30T20:28:44.374Z,148565,vgGmJ1sEeR,incremental,anketa,6645cf40bc81b65c5faccf1d,participant,hcpib7dulz8vawka,,,mousedown,,Što želiš da pronaći nije bilo teško?,Pronaći apoteku nije bilo teško.,si,,,14,,,2305
,Sequence,flow.Sequence,2_4,,,,,,completion,5736,142739,142741,142783,148519,148520,2024-07-30T20:28:44.374Z,148565,vgGmJ1sEeR,incremental,anketa,6645cf40bc81b65c5faccf1d,participant,hcpib7dulz8vawka,,,,,Što želiš da pronaći nije bilo teško?,Pronaći apoteku nije bilo teško.,si,,,14,,,2305
,context,canvas.Screen,2_5_0_0,,,,,,response,1861.000000000029,148521.00000000003,148523,148565,150426.00000000003,150427,2024-07-30T20:28:46.281Z,150471,vgGmJ1sEeR,incremental,anketa,6645cf40bc81b65c5faccf1d,participant,hcpib7dulz8vawka,,,click,,"Što je on plakao, čitajući?","On je plakao, čitajući knjigu.",ai,,,22,,,
,Timer frame,html.Frame,2_5_0,,,,,,,1862,148521.00000000003,148523,148565,150427,150427,2024-07-30T20:28:46.281Z,150471,vgGmJ1sEeR,incremental,anketa,6645cf40bc81b65c5faccf1d,participant,hcpib7dulz8vawka,,,,,"Što je on plakao, čitajući?","On je plakao, čitajući knjigu.",ai,,,22,,,
,stimulus,canvas.Screen,2_5_1_0,,,,,,response,4250,150428,150430,150471,154721,154722,2024-07-30T20:28:50.576Z,154782,vgGmJ1sEeR,incremental,anketa,6645cf40bc81b65c5faccf1d,participant,hcpib7dulz8vawka,,1,click @1,,"Što je on plakao, čitajući?","On je plakao, čitajući knjigu.",ai,,,22,,,
,Timer frame,html.Frame,2_5_1,,,,,,,4252,150427,150430,150471,154723,154723,2024-07-30T20:28:50.577Z,154782,vgGmJ1sEeR,incremental,anketa,6645cf40bc81b65c5faccf1d,participant,hcpib7dulz8vawka,,,,,"Što je on plakao, čitajući?","On je plakao, čitajući knjigu.",ai,,,22,,,
,Spremanje,canvas.Screen,2_5_2,,,,,,skipped,,154723,,,154723,154723,2024-07-30T20:28:50.577Z,154782,vgGmJ1sEeR,incremental,anketa,6645cf40bc81b65c5faccf1d,participant,hcpib7dulz8vawka,,,,,"Što je on plakao, čitajući?","On je plakao, čitajući knjigu.",ai,,,22,,,
,Question form,html.Form,2_5_3,,,,,,skipped,,154723,,,154723,154723,2024-07-30T20:28:50.577Z,154782,vgGmJ1sEeR,incremental,anketa,6645cf40bc81b65c5faccf1d,participant,hcpib7dulz8vawka,,,,,"Što je on plakao, čitajući?","On je plakao, čitajući knjigu.",ai,,,22,,,
,Answer indication,canvas.Screen,2_5_4,,,,,,skipped,,154725,,,154723,154726,2024-07-30T20:28:50.580Z,154782,vgGmJ1sEeR,incremental,anketa,6645cf40bc81b65c5faccf1d,participant,hcpib7dulz8vawka,,,,,"Što je on plakao, čitajući?","On je plakao, čitajući knjigu.",ai,,,22,,,
,inter-stimulus,canvas.Screen,2_5_5,,,,,,response,1627,154726,154727,154782,156409,156413,2024-07-30T20:28:52.267Z,156453,vgGmJ1sEeR,incremental,anketa,6645cf40bc81b65c5faccf1d,participant,hcpib7dulz8vawka,,,mousedown,,"Što je on plakao, čitajući?","On je plakao, čitajući knjigu.",ai,,,22,,,
,Sequence,flow.Sequence,2_5,,,,,,completion,7844,148521.00000000003,148523,148565,156409,156414.00000000003,2024-07-30T20:28:52.268Z,156453,vgGmJ1sEeR,incremental,anketa,6645cf40bc81b65c5faccf1d,participant,hcpib7dulz8vawka,,,,,"Što je on plakao, čitajući?","On je plakao, čitajući knjigu.",ai,,,22,,,
,context,canvas.Screen,2_6_0_0,,,,,,response,2645,156414.00000000003,156416,156453,159098,159099,2024-07-30T20:28:54.953Z,159161,vgGmJ1sEeR,incremental,anketa,6645cf40bc81b65c5faccf1d,participant,hcpib7dulz8vawka,,,click,,U sutra ne samo svatko jedan može gledati.,Ne može svatko gledati u sutra.,nf,,,45,,,
,Timer frame,html.Frame,2_6_0,,,,,,,2646,156414.00000000003,156416,156453,159099,159099,2024-07-30T20:28:54.953Z,159161,vgGmJ1sEeR,incremental,anketa,6645cf40bc81b65c5faccf1d,participant,hcpib7dulz8vawka,,,,,U sutra ne samo svatko jedan može gledati.,Ne može svatko gledati u sutra.,nf,,,45,,,
,stimulus,canvas.Screen,2_6_1_0,,,,,,response,2462,159100,159127,159161,161623,161624,2024-07-30T20:28:57.478Z,,vgGmJ1sEeR,incremental,anketa,6645cf40bc81b65c5faccf1d,participant,hcpib7dulz8vawka,,1,click @1,,U sutra ne samo svatko jedan može gledati.,Ne može svatko gledati u sutra.,nf,,,45,,,
,Timer frame,html.Frame,2_6_1,,,,,,,2463,159099,159127,159161,161624,161624,2024-07-30T20:28:57.478Z,,vgGmJ1sEeR,incremental,anketa,6645cf40bc81b65c5faccf1d,participant,hcpib7dulz8vawka,,,,,U sutra ne samo svatko jedan može gledati.,Ne može svatko gledati u sutra.,nf,,,45,,,
,Spremanje,canvas.Screen,2_6_2,,,,,,skipped,,161624,,,161624,161625,2024-07-30T20:28:57.479Z,,vgGmJ1sEeR,incremental,anketa,6645cf40bc81b65c5faccf1d,participant,hcpib7dulz8vawka,,,,,U sutra ne samo svatko jedan može gledati.,Ne može svatko gledati u sutra.,nf,,,45,,,
,Question form,html.Form,2_6_3,,,,,,skipped,,161625,,,161624,161625,2024-07-30T20:28:57.479Z,,vgGmJ1sEeR,incremental,anketa,6645cf40bc81b65c5faccf1d,participant,hcpib7dulz8vawka,,,,,U sutra ne samo svatko jedan može gledati.,Ne može svatko gledati u sutra.,nf,,,45,,,
,Answer indication,canvas.Screen,2_6_4,,,,,,skipped,,161627,,,161624,161627,2024-07-30T20:28:57.481Z,,vgGmJ1sEeR,incremental,anketa,6645cf40bc81b65c5faccf1d,participant,hcpib7dulz8vawka,,,,,U sutra ne samo svatko jedan može gledati.,Ne može svatko gledati u sutra.,nf,,,45,,,
,inter-stimulus,canvas.Screen,2_6_5,,,,,,response,1008.0000000000291,161627,161628,161668,162676.00000000003,162677,2024-07-30T20:28:58.531Z,162738,vgGmJ1sEeR,incremental,anketa,6645cf40bc81b65c5faccf1d,participant,hcpib7dulz8vawka,,,mousedown,,U sutra ne samo svatko jedan može gledati.,Ne može svatko gledati u sutra.,nf,,,45,,,
,Sequence,flow.Sequence,2_6,,,,,,completion,6223.000000000029,156414.00000000003,156416,156453,162676.00000000003,162677,2024-07-30T20:28:58.531Z,162738,vgGmJ1sEeR,incremental,anketa,6645cf40bc81b65c5faccf1d,participant,hcpib7dulz8vawka,,,,,U sutra ne samo svatko jedan može gledati.,Ne može svatko gledati u sutra.,nf,,,45,,,
,context,canvas.Screen,2_7_0_0,,,,,,response,3615,162678,162680,162738,166353,166354,2024-07-30T20:29:02.208Z,166415,vgGmJ1sEeR,incremental,anketa,6645cf40bc81b65c5faccf1d,participant,hcpib7dulz8vawka,,,click,,Za koliko novca nevjerojatno je da je Goran prodao svoj stan??,Ono da je Goran prodao svoj stan za toliki novac nevjerojatno je..,si,31,32,18,,,
,Timer frame,html.Frame,2_7_0,,,,,,,3616,162677,162680,162738,166354,166354,2024-07-30T20:29:02.208Z,166415,vgGmJ1sEeR,incremental,anketa,6645cf40bc81b65c5faccf1d,participant,hcpib7dulz8vawka,,,,,Za koliko novca nevjerojatno je da je Goran prodao svoj stan??,Ono da je Goran prodao svoj stan za toliki novac nevjerojatno je..,si,31,32,18,,,
,stimulus,canvas.Screen,2_7_1_0,,,,,,response,2696,166355,166356,166415,169111,169112,2024-07-30T20:29:04.966Z,169156,vgGmJ1sEeR,incremental,anketa,6645cf40bc81b65c5faccf1d,participant,hcpib7dulz8vawka,,1,click @1,,Za koliko novca nevjerojatno je da je Goran prodao svoj stan??,Ono da je Goran prodao svoj stan za toliki novac nevjerojatno je..,si,31,32,18,,,
,Timer frame,html.Frame,2_7_1,,,,,,,2697,166354,166356,166415,169112,169113,2024-07-30T20:29:04.967Z,169156,vgGmJ1sEeR,incremental,anketa,6645cf40bc81b65c5faccf1d,participant,hcpib7dulz8vawka,,,,,Za koliko novca nevjerojatno je da je Goran prodao svoj stan??,Ono da je Goran prodao svoj stan za toliki novac nevjerojatno je..,si,31,32,18,,,
,Spremanje,canvas.Screen,2_7_2,,,,,,skipped,,169113,,,169112,169113,2024-07-30T20:29:04.967Z,169156,vgGmJ1sEeR,incremental,anketa,6645cf40bc81b65c5faccf1d,participant,hcpib7dulz8vawka,,,,,Za koliko novca nevjerojatno je da je Goran prodao svoj stan??,Ono da je Goran prodao svoj stan za toliki novac nevjerojatno je..,si,31,32,18,,,
,Question form,html.Form,2_7_3,,,,,,skipped,,169113,,,169112,169113,2024-07-30T20:29:04.967Z,169156,vgGmJ1sEeR,incremental,anketa,6645cf40bc81b65c5faccf1d,participant,hcpib7dulz8vawka,,,,,Za koliko novca nevjerojatno je da je Goran prodao svoj stan??,Ono da je Goran prodao svoj stan za toliki novac nevjerojatno je..,si,31,32,18,,,
,Answer indication,canvas.Screen,2_7_4,,,,,,skipped,,169115,,,169112,169115,2024-07-30T20:29:04.969Z,169156,vgGmJ1sEeR,incremental,anketa,6645cf40bc81b65c5faccf1d,participant,hcpib7dulz8vawka,,,,,Za koliko novca nevjerojatno je da je Goran prodao svoj stan??,Ono da je Goran prodao svoj stan za toliki novac nevjerojatno je..,si,31,32,18,,,
,inter-stimulus,canvas.Screen,2_7_5,,,,,,response,773,169115,169117,169156,169929,169930,2024-07-30T20:29:05.784Z,169992,vgGmJ1sEeR,incremental,anketa,6645cf40bc81b65c5faccf1d,participant,hcpib7dulz8vawka,,,mousedown,,Za koliko novca nevjerojatno je da je Goran prodao svoj stan??,Ono da je Goran prodao svoj stan za toliki novac nevjerojatno je..,si,31,32,18,,,
,Sequence,flow.Sequence,2_7,,,,,,completion,7191,162677,162680,162738,169929,169931,2024-07-30T20:29:05.785Z,169992,vgGmJ1sEeR,incremental,anketa,6645cf40bc81b65c5faccf1d,participant,hcpib7dulz8vawka,,,,,Za koliko novca nevjerojatno je da je Goran prodao svoj stan??,Ono da je Goran prodao svoj stan za toliki novac nevjerojatno je..,si,31,32,18,,,
,context,canvas.Screen,2_8_0_0,,,,,,response,7442,169931,169933,169992,177434,177434,2024-07-30T20:29:13.288Z,177480,vgGmJ1sEeR,incremental,anketa,6645cf40bc81b65c5faccf1d,participant,hcpib7dulz8vawka,,,click,,Na što je teško prestati besmisleno bacati novac?,Teško je prestati besmisleno bacati novac na tenisice.,si,,,13,,,
,Timer frame,html.Frame,2_8_0,,,,,,,7443,169931,169933,169992,177435,177435,2024-07-30T20:29:13.289Z,177480,vgGmJ1sEeR,incremental,anketa,6645cf40bc81b65c5faccf1d,participant,hcpib7dulz8vawka,,,,,Na što je teško prestati besmisleno bacati novac?,Teško je prestati besmisleno bacati novac na tenisice.,si,,,13,,,
,stimulus,canvas.Screen,2_8_1_0,,,,,,response,3232.000000000029,177435,177437,177480,180712.00000000003,180713,2024-07-30T20:29:16.567Z,180756,vgGmJ1sEeR,incremental,anketa,6645cf40bc81b65c5faccf1d,participant,hcpib7dulz8vawka,,6,click @6,,Na što je teško prestati besmisleno bacati novac?,Teško je prestati besmisleno bacati novac na tenisice.,si,,,13,,,
,Timer frame,html.Frame,2_8_1,,,,,,,3233,177435,177437,177480,180713,180713,2024-07-30T20:29:16.567Z,180756,vgGmJ1sEeR,incremental,anketa,6645cf40bc81b65c5faccf1d,participant,hcpib7dulz8vawka,,,,,Na što je teško prestati besmisleno bacati novac?,Teško je prestati besmisleno bacati novac na tenisice.,si,,,13,,,
,Spremanje,canvas.Screen,2_8_2,,,,,,skipped,,180713,,,180713,180713,2024-07-30T20:29:16.567Z,180756,vgGmJ1sEeR,incremental,anketa,6645cf40bc81b65c5faccf1d,participant,hcpib7dulz8vawka,,,,,Na što je teško prestati besmisleno bacati novac?,Teško je prestati besmisleno bacati novac na tenisice.,si,,,13,,,
,Question form,html.Form,2_8_3,,,,,,skipped,,180713,,,180713,180714,2024-07-30T20:29:16.568Z,180756,vgGmJ1sEeR,incremental,anketa,6645cf40bc81b65c5faccf1d,participant,hcpib7dulz8vawka,,,,,Na što je teško prestati besmisleno bacati novac?,Teško je prestati besmisleno bacati novac na tenisice.,si,,,13,,,
,Answer indication,canvas.Screen,2_8_4,,,,,,skipped,,180715,,,180713,180715,2024-07-30T20:29:16.569Z,180756,vgGmJ1sEeR,incremental,anketa,6645cf40bc81b65c5faccf1d,participant,hcpib7dulz8vawka,,,,,Na što je teško prestati besmisleno bacati novac?,Teško je prestati besmisleno bacati novac na tenisice.,si,,,13,,,
,inter-stimulus,canvas.Screen,2_8_5,,,,,,response,791,180716,180717,180756,181547,181548,2024-07-30T20:29:17.402Z,181592,vgGmJ1sEeR,incremental,anketa,6645cf40bc81b65c5faccf1d,participant,hcpib7dulz8vawka,,,mousedown,,Na što je teško prestati besmisleno bacati novac?,Teško je prestati besmisleno bacati novac na tenisice.,si,,,13,,,
,Sequence,flow.Sequence,2_8,,,,,,completion,11555,169931,169933,169992,181547,181548,2024-07-30T20:29:17.402Z,181592,vgGmJ1sEeR,incremental,anketa,6645cf40bc81b65c5faccf1d,participant,hcpib7dulz8vawka,,,,,Na što je teško prestati besmisleno bacati novac?,Teško je prestati besmisleno bacati novac na tenisice.,si,,,13,,,
,context,canvas.Screen,2_9_0_0,,,,,,response,2279,181549,181551,181592,183871,183872,2024-07-30T20:29:19.726Z,183932,vgGmJ1sEeR,incremental,anketa,6645cf40bc81b65c5faccf1d,participant,hcpib7dulz8vawka,,,click,,Što je kupio i majicu?,On je kupio tenisice I majicu.,csi,0,0,0,,,2305
,Timer frame,html.Frame,2_9_0,,,,,,,2280,181549,181551,181592,183872,183872,2024-07-30T20:29:19.726Z,183932,vgGmJ1sEeR,incremental,anketa,6645cf40bc81b65c5faccf1d,participant,hcpib7dulz8vawka,,,,,Što je kupio i majicu?,On je kupio tenisice I majicu.,csi,0,0,0,,,2305
,stimulus,canvas.Screen,2_9_1_0,,,,,,response,2295,183872,183875,183932,186227,186228,2024-07-30T20:29:22.082Z,186272,vgGmJ1sEeR,incremental,anketa,6645cf40bc81b65c5faccf1d,participant,hcpib7dulz8vawka,,1,click @1,,Što je kupio i majicu?,On je kupio tenisice I majicu.,csi,0,0,0,,,2305
,Timer frame,html.Frame,2_9_1,,,,,,,2297,183872,183875,183932,186229,186229,2024-07-30T20:29:22.083Z,186272,vgGmJ1sEeR,incremental,anketa,6645cf40bc81b65c5faccf1d,participant,hcpib7dulz8vawka,,,,,Što je kupio i majicu?,On je kupio tenisice I majicu.,csi,0,0,0,,,2305
,Spremanje,canvas.Screen,2_9_2,,,,,,skipped,,186229,,,186229,186229,2024-07-30T20:29:22.083Z,186272,vgGmJ1sEeR,incremental,anketa,6645cf40bc81b65c5faccf1d,participant,hcpib7dulz8vawka,,,,,Što je kupio i majicu?,On je kupio tenisice I majicu.,csi,0,0,0,,,2305
,Question form,html.Form,2_9_3,,,,,,skipped,,186229,,,186229,186230,2024-07-30T20:29:22.084Z,186272,vgGmJ1sEeR,incremental,anketa,6645cf40bc81b65c5faccf1d,participant,hcpib7dulz8vawka,,,,,Što je kupio i majicu?,On je kupio tenisice I majicu.,csi,0,0,0,,,2305
,Answer indication,canvas.Screen,2_9_4,,,,,,skipped,,186232,,,186229,186232,2024-07-30T20:29:22.086Z,186272,vgGmJ1sEeR,incremental,anketa,6645cf40bc81b65c5faccf1d,participant,hcpib7dulz8vawka,,,,,Što je kupio i majicu?,On je kupio tenisice I majicu.,csi,0,0,0,,,2305
,inter-stimulus,canvas.Screen,2_9_5,,,,,,response,1074,186232,186233,186272,187346,187347,2024-07-30T20:29:23.201Z,187408,vgGmJ1sEeR,incremental,anketa,6645cf40bc81b65c5faccf1d,participant,hcpib7dulz8vawka,,,mousedown,,Što je kupio i majicu?,On je kupio tenisice I majicu.,csi,0,0,0,,,2305
,Sequence,flow.Sequence,2_9,,,,,,completion,5754,181549,181551,181592,187346,187347,2024-07-30T20:29:23.201Z,187408,vgGmJ1sEeR,incremental,anketa,6645cf40bc81b65c5faccf1d,participant,hcpib7dulz8vawka,,,,,Što je kupio i majicu?,On je kupio tenisice I majicu.,csi,0,0,0,,,2305
,context,canvas.Screen,2_10_0_0,,,,,,response,3080,187348,187350,187408,190488,190489,2024-07-30T20:29:26.343Z,190550,vgGmJ1sEeR,incremental,anketa,6645cf40bc81b65c5faccf1d,participant,hcpib7dulz8vawka,,,click,,O čemu je Ivo cijelu večer pričao?,Ivo je cijelu večer pričao o autima.,gf,,,47,,,
,Timer frame,html.Frame,2_10_0,,,,,,,3081,187347,187350,187408,190489,190489,2024-07-30T20:29:26.343Z,190550,vgGmJ1sEeR,incremental,anketa,6645cf40bc81b65c5faccf1d,participant,hcpib7dulz8vawka,,,,,O čemu je Ivo cijelu večer pričao?,Ivo je cijelu večer pričao o autima.,gf,,,47,,,
,stimulus,canvas.Screen,2_10_1_0,,,,,,response,1593,190490,190492,190550,192143,192144,2024-07-30T20:29:27.998Z,192188,vgGmJ1sEeR,incremental,anketa,6645cf40bc81b65c5faccf1d,participant,hcpib7dulz8vawka,,7,click @7,,O čemu je Ivo cijelu večer pričao?,Ivo je cijelu večer pričao o autima.,gf,,,47,,,
,Timer frame,html.Frame,2_10_1,,,,,,,1594,190489,190492,190550,192144,192144,2024-07-30T20:29:27.998Z,192188,vgGmJ1sEeR,incremental,anketa,6645cf40bc81b65c5faccf1d,participant,hcpib7dulz8vawka,,,,,O čemu je Ivo cijelu večer pričao?,Ivo je cijelu večer pričao o autima.,gf,,,47,,,
,Spremanje,canvas.Screen,2_10_2,,,,,,skipped,,192145,,,192144,192145,2024-07-30T20:29:27.999Z,192188,vgGmJ1sEeR,incremental,anketa,6645cf40bc81b65c5faccf1d,participant,hcpib7dulz8vawka,,,,,O čemu je Ivo cijelu večer pričao?,Ivo je cijelu večer pričao o autima.,gf,,,47,,,
,Question form,html.Form,2_10_3,,,,,,skipped,,192145,,,192144,192145,2024-07-30T20:29:27.999Z,192188,vgGmJ1sEeR,incremental,anketa,6645cf40bc81b65c5faccf1d,participant,hcpib7dulz8vawka,,,,,O čemu je Ivo cijelu večer pričao?,Ivo je cijelu večer pričao o autima.,gf,,,47,,,
,Answer indication,canvas.Screen,2_10_4,,,,,,skipped,,192147,,,192144,192147,2024-07-30T20:29:28.001Z,192188,vgGmJ1sEeR,incremental,anketa,6645cf40bc81b65c5faccf1d,participant,hcpib7dulz8vawka,,,,,O čemu je Ivo cijelu večer pričao?,Ivo je cijelu večer pričao o autima.,gf,,,47,,,
,inter-stimulus,canvas.Screen,2_10_5,,,,,,response,890,192147,192148,192188,193078,193079,2024-07-30T20:29:28.933Z,193124,vgGmJ1sEeR,incremental,anketa,6645cf40bc81b65c5faccf1d,participant,hcpib7dulz8vawka,,,mousedown,,O čemu je Ivo cijelu večer pričao?,Ivo je cijelu večer pričao o autima.,gf,,,47,,,
,Sequence,flow.Sequence,2_10,,,,,,completion,5670,187347,187350,187408,193078,193080,2024-07-30T20:29:28.934Z,193124,vgGmJ1sEeR,incremental,anketa,6645cf40bc81b65c5faccf1d,participant,hcpib7dulz8vawka,,,,,O čemu je Ivo cijelu večer pričao?,Ivo je cijelu večer pričao o autima.,gf,,,47,,,
,context,canvas.Screen,2_11_0_0,,,,,,response,3431,193080,193082,193124,196555,196556,2024-07-30T20:29:32.410Z,196601,vgGmJ1sEeR,incremental,anketa,6645cf40bc81b65c5faccf1d,participant,hcpib7dulz8vawka,,,click,,Što Miloš je opljačkao banku da kupi?,Miloš je opljačkao banku da kupi kuću.,ai,,,20,,,
,Timer frame,html.Frame,2_11_0,,,,,,,3432,193080,193082,193124,196556,196556,2024-07-30T20:29:32.411Z,196601,vgGmJ1sEeR,incremental,anketa,6645cf40bc81b65c5faccf1d,participant,hcpib7dulz8vawka,,,,,Što Miloš je opljačkao banku da kupi?,Miloš je opljačkao banku da kupi kuću.,ai,,,20,,,
,stimulus,canvas.Screen,2_11_1_0,,,,,,response,1676.000000000029,196557.00000000003,196559,196601,198277.00000000003,198278,2024-07-30T20:29:34.132Z,198339,vgGmJ1sEeR,incremental,anketa,6645cf40bc81b65c5faccf1d,participant,hcpib7dulz8vawka,,1,click @1,,Što Miloš je opljačkao banku da kupi?,Miloš je opljačkao banku da kupi kuću.,ai,,,20,,,
,Timer frame,html.Frame,2_11_1,,,,,,,1677,196557.00000000003,196559,196601,198278,198278,2024-07-30T20:29:34.132Z,198339,vgGmJ1sEeR,incremental,anketa,6645cf40bc81b65c5faccf1d,participant,hcpib7dulz8vawka,,,,,Što Miloš je opljačkao banku da kupi?,Miloš je opljačkao banku da kupi kuću.,ai,,,20,,,
,Spremanje,canvas.Screen,2_11_2,,,,,,skipped,,198278,,,198278,198278,2024-07-30T20:29:34.132Z,198339,vgGmJ1sEeR,incremental,anketa,6645cf40bc81b65c5faccf1d,participant,hcpib7dulz8vawka,,,,,Što Miloš je opljačkao banku da kupi?,Miloš je opljačkao banku da kupi kuću.,ai,,,20,,,
,Question form,html.Form,2_11_3,,,,,,skipped,,198279,,,198278,198279,2024-07-30T20:29:34.133Z,198339,vgGmJ1sEeR,incremental,anketa,6645cf40bc81b65c5faccf1d,participant,hcpib7dulz8vawka,,,,,Što Miloš je opljačkao banku da kupi?,Miloš je opljačkao banku da kupi kuću.,ai,,,20,,,
,Answer indication,canvas.Screen,2_11_4,,,,,,skipped,,198281,,,198278,198281,2024-07-30T20:29:34.135Z,198339,vgGmJ1sEeR,incremental,anketa,6645cf40bc81b65c5faccf1d,participant,hcpib7dulz8vawka,,,,,Što Miloš je opljačkao banku da kupi?,Miloš je opljačkao banku da kupi kuću.,ai,,,20,,,
,inter-stimulus,canvas.Screen,2_11_5,,,,,,response,1225,198281,198282,198339,199564,199564,2024-07-30T20:29:35.418Z,199609,vgGmJ1sEeR,incremental,anketa,6645cf40bc81b65c5faccf1d,participant,hcpib7dulz8vawka,,,mousedown,,Što Miloš je opljačkao banku da kupi?,Miloš je opljačkao banku da kupi kuću.,ai,,,20,,,
,Sequence,flow.Sequence,2_11,,,,,,completion,6440,193080,193082,193124,199564,199565,2024-07-30T20:29:35.419Z,199609,vgGmJ1sEeR,incremental,anketa,6645cf40bc81b65c5faccf1d,participant,hcpib7dulz8vawka,,,,,Što Miloš je opljačkao banku da kupi?,Miloš je opljačkao banku da kupi kuću.,ai,,,20,,,
,context,canvas.Screen,2_12_0_0,,,,,,response,3732,199565,199568,199609,203341,203342,2024-07-30T20:29:39.196Z,203387,vgGmJ1sEeR,incremental,anketa,6645cf40bc81b65c5faccf1d,participant,hcpib7dulz8vawka,,,click,,Što si saznao tužnu vijest da je Petar izgubio u podzemnoj??,Saznao si tužnu vijest da je Petar izgubio putovnicu u podzemnoj..,cnp,38,34,9,,,
,Timer frame,html.Frame,2_12_0,,,,,,,3733,199565,199568,199609,203342,203342,2024-07-30T20:29:39.196Z,203387,vgGmJ1sEeR,incremental,anketa,6645cf40bc81b65c5faccf1d,participant,hcpib7dulz8vawka,,,,,Što si saznao tužnu vijest da je Petar izgubio u podzemnoj??,Saznao si tužnu vijest da je Petar izgubio putovnicu u podzemnoj..,cnp,38,34,9,,,
,stimulus,canvas.Screen,2_12_1_0,,,,,,response,1426.000000000029,203342,203344,203387,204813.00000000003,204814,2024-07-30T20:29:40.668Z,204857,vgGmJ1sEeR,incremental,anketa,6645cf40bc81b65c5faccf1d,participant,hcpib7dulz8vawka,,1,click @1,,Što si saznao tužnu vijest da je Petar izgubio u podzemnoj??,Saznao si tužnu vijest da je Petar izgubio putovnicu u podzemnoj..,cnp,38,34,9,,,
,Timer frame,html.Frame,2_12_1,,,,,,,1427,203342,203344,203387,204814,204814,2024-07-30T20:29:40.668Z,204857,vgGmJ1sEeR,incremental,anketa,6645cf40bc81b65c5faccf1d,participant,hcpib7dulz8vawka,,,,,Što si saznao tužnu vijest da je Petar izgubio u podzemnoj??,Saznao si tužnu vijest da je Petar izgubio putovnicu u podzemnoj..,cnp,38,34,9,,,
,Spremanje,canvas.Screen,2_12_2,,,,,,skipped,,204814,,,204814,204814,2024-07-30T20:29:40.668Z,204857,vgGmJ1sEeR,incremental,anketa,6645cf40bc81b65c5faccf1d,participant,hcpib7dulz8vawka,,,,,Što si saznao tužnu vijest da je Petar izgubio u podzemnoj??,Saznao si tužnu vijest da je Petar izgubio putovnicu u podzemnoj..,cnp,38,34,9,,,
,Question form,html.Form,2_12_3,,,,,,skipped,,204814,,,204814,204814,2024-07-30T20:29:40.668Z,204857,vgGmJ1sEeR,incremental,anketa,6645cf40bc81b65c5faccf1d,participant,hcpib7dulz8vawka,,,,,Što si saznao tužnu vijest da je Petar izgubio u podzemnoj??,Saznao si tužnu vijest da je Petar izgubio putovnicu u podzemnoj..,cnp,38,34,9,,,
,Answer indication,canvas.Screen,2_12_4,,,,,,skipped,,204816,,,204814,204816,2024-07-30T20:29:40.670Z,204857,vgGmJ1sEeR,incremental,anketa,6645cf40bc81b65c5faccf1d,participant,hcpib7dulz8vawka,,,,,Što si saznao tužnu vijest da je Petar izgubio u podzemnoj??,Saznao si tužnu vijest da je Petar izgubio putovnicu u podzemnoj..,cnp,38,34,9,,,
,inter-stimulus,canvas.Screen,2_12_5,,,,,,response,791,204816,204817,204857,205648,205649,2024-07-30T20:29:41.503Z,205693,vgGmJ1sEeR,incremental,anketa,6645cf40bc81b65c5faccf1d,participant,hcpib7dulz8vawka,,,mousedown,,Što si saznao tužnu vijest da je Petar izgubio u podzemnoj??,Saznao si tužnu vijest da je Petar izgubio putovnicu u podzemnoj..,cnp,38,34,9,,,
,Sequence,flow.Sequence,2_12,,,,,,completion,6039,199565,199568,199609,205648,205650,2024-07-30T20:29:41.504Z,205693,vgGmJ1sEeR,incremental,anketa,6645cf40bc81b65c5faccf1d,participant,hcpib7dulz8vawka,,,,,Što si saznao tužnu vijest da je Petar izgubio u podzemnoj??,Saznao si tužnu vijest da je Petar izgubio putovnicu u podzemnoj..,cnp,38,34,9,,,
,context,canvas.Screen,2_13_0_0,,,,,,response,4785,205651,205652,205693,210478,210479,2024-07-30T20:29:46.333Z,210540,vgGmJ1sEeR,incremental,anketa,6645cf40bc81b65c5faccf1d,participant,hcpib7dulz8vawka,,,click,,Od čega je djed otišao u sanatorij odmarati?,Djed je otišao u sanatorij odmarati od gužve i buke..,ai,,26,30,,,
,Timer frame,html.Frame,2_13_0,,,,,,,4787.000000000029,205650,205652,205693,210480.00000000003,210480.00000000003,2024-07-30T20:29:46.334Z,210540,vgGmJ1sEeR,incremental,anketa,6645cf40bc81b65c5faccf1d,participant,hcpib7dulz8vawka,,,,,Od čega je djed otišao u sanatorij odmarati?,Djed je otišao u sanatorij odmarati od gužve i buke..,ai,,26,30,,,
,stimulus,canvas.Screen,2_13_1_0,,,,,,response,1476,210480.00000000003,210483,210540,212016,212017,2024-07-30T20:29:47.871Z,212078,vgGmJ1sEeR,incremental,anketa,6645cf40bc81b65c5faccf1d,participant,hcpib7dulz8vawka,,1,click @1,,Od čega je djed otišao u sanatorij odmarati?,Djed je otišao u sanatorij odmarati od gužve i buke..,ai,,26,30,,,
,Timer frame,html.Frame,2_13_1,,,,,,,1477,210480.00000000003,210483,210540,212017,212017,2024-07-30T20:29:47.871Z,212078,vgGmJ1sEeR,incremental,anketa,6645cf40bc81b65c5faccf1d,participant,hcpib7dulz8vawka,,,,,Od čega je djed otišao u sanatorij odmarati?,Djed je otišao u sanatorij odmarati od gužve i buke..,ai,,26,30,,,
,Spremanje,canvas.Screen,2_13_2,,,,,,skipped,,212017,,,212017,212017,2024-07-30T20:29:47.871Z,212078,vgGmJ1sEeR,incremental,anketa,6645cf40bc81b65c5faccf1d,participant,hcpib7dulz8vawka,,,,,Od čega je djed otišao u sanatorij odmarati?,Djed je otišao u sanatorij odmarati od gužve i buke..,ai,,26,30,,,
,Question form,html.Form,2_13_3,,,,,,skipped,,212017,,,212017,212017,2024-07-30T20:29:47.872Z,212078,vgGmJ1sEeR,incremental,anketa,6645cf40bc81b65c5faccf1d,participant,hcpib7dulz8vawka,,,,,Od čega je djed otišao u sanatorij odmarati?,Djed je otišao u sanatorij odmarati od gužve i buke..,ai,,26,30,,,
,Answer indication,canvas.Screen,2_13_4,,,,,,skipped,,212021.00000000003,,,212017,212021.00000000003,2024-07-30T20:29:47.875Z,212078,vgGmJ1sEeR,incremental,anketa,6645cf40bc81b65c5faccf1d,participant,hcpib7dulz8vawka,,,,,Od čega je djed otišao u sanatorij odmarati?,Djed je otišao u sanatorij odmarati od gužve i buke..,ai,,26,30,,,
,inter-stimulus,canvas.Screen,2_13_5,,,,,,response,924,212021.00000000003,212022,212078,213002,213003,2024-07-30T20:29:48.857Z,213048,vgGmJ1sEeR,incremental,anketa,6645cf40bc81b65c5faccf1d,participant,hcpib7dulz8vawka,,,mousedown,,Od čega je djed otišao u sanatorij odmarati?,Djed je otišao u sanatorij odmarati od gužve i buke..,ai,,26,30,,,
,Sequence,flow.Sequence,2_13,,,,,,completion,7309,205650,205652,205693,213002,213003,2024-07-30T20:29:48.857Z,213048,vgGmJ1sEeR,incremental,anketa,6645cf40bc81b65c5faccf1d,participant,hcpib7dulz8vawka,,,,,Od čega je djed otišao u sanatorij odmarati?,Djed je otišao u sanatorij odmarati od gužve i buke..,ai,,26,30,,,
,context,canvas.Screen,2_14_0_0,,,,,,timeout,10998,213004,213005,213048,224012,224014,2024-07-30T20:29:59.868Z,224046,vgGmJ1sEeR,incremental,anketa,6645cf40bc81b65c5faccf1d,participant,hcpib7dulz8vawka,,,,,Kakva je kraj mene biciklom prošla djevojka?,Kraj mene je biciklom prošla vrlo lijepa djevojka.,ai,,,27,,,
,Timer frame,html.Frame,2_14_0,,,,,,,10966,213003,213005,213048,224014,224014,2024-07-30T20:29:59.868Z,224079,vgGmJ1sEeR,incremental,anketa,6645cf40bc81b65c5faccf1d,participant,hcpib7dulz8vawka,,,,,Kakva je kraj mene biciklom prošla djevojka?,Kraj mene je biciklom prošla vrlo lijepa djevojka.,ai,,,27,,,
,stimulus,canvas.Screen,2_14_1_0,,,,,,response,7226,224014,224046,224079,231305,231306,2024-07-30T20:30:07.160Z,231367,vgGmJ1sEeR,incremental,anketa,6645cf40bc81b65c5faccf1d,participant,hcpib7dulz8vawka,,1,click @1,,Kakva je kraj mene biciklom prošla djevojka?,Kraj mene je biciklom prošla vrlo lijepa djevojka.,ai,,,27,,,
,Timer frame,html.Frame,2_14_1,,,,,,,7227,224014,224046,224079,231306,231307.00000000003,2024-07-30T20:30:07.161Z,231367,vgGmJ1sEeR,incremental,anketa,6645cf40bc81b65c5faccf1d,participant,hcpib7dulz8vawka,,,,,Kakva je kraj mene biciklom prošla djevojka?,Kraj mene je biciklom prošla vrlo lijepa djevojka.,ai,,,27,,,
,Spremanje,canvas.Screen,2_14_2,,,,,,skipped,,231307.00000000003,,,231306,231307.00000000003,2024-07-30T20:30:07.161Z,231367,vgGmJ1sEeR,incremental,anketa,6645cf40bc81b65c5faccf1d,participant,hcpib7dulz8vawka,,,,,Kakva je kraj mene biciklom prošla djevojka?,Kraj mene je biciklom prošla vrlo lijepa djevojka.,ai,,,27,,,
,Question form,html.Form,2_14_3,,,,,,skipped,,231307.00000000003,,,231306,231307.00000000003,2024-07-30T20:30:07.161Z,231367,vgGmJ1sEeR,incremental,anketa,6645cf40bc81b65c5faccf1d,participant,hcpib7dulz8vawka,,,,,Kakva je kraj mene biciklom prošla djevojka?,Kraj mene je biciklom prošla vrlo lijepa djevojka.,ai,,,27,,,
,Answer indication,canvas.Screen,2_14_4,,,,,,skipped,,231309,,,231306,231309,2024-07-30T20:30:07.163Z,231367,vgGmJ1sEeR,incremental,anketa,6645cf40bc81b65c5faccf1d,participant,hcpib7dulz8vawka,,,,,Kakva je kraj mene biciklom prošla djevojka?,Kraj mene je biciklom prošla vrlo lijepa djevojka.,ai,,,27,,,
,inter-stimulus,canvas.Screen,2_14_5,,,,,,response,1260,231309,231310,231367,232627,232627,2024-07-30T20:30:08.481Z,232671,vgGmJ1sEeR,incremental,anketa,6645cf40bc81b65c5faccf1d,participant,hcpib7dulz8vawka,,,mousedown,,Kakva je kraj mene biciklom prošla djevojka?,Kraj mene je biciklom prošla vrlo lijepa djevojka.,ai,,,27,,,
,Sequence,flow.Sequence,2_14,,,,,,completion,19579,213003,213005,213048,232627,232628,2024-07-30T20:30:08.482Z,232671,vgGmJ1sEeR,incremental,anketa,6645cf40bc81b65c5faccf1d,participant,hcpib7dulz8vawka,,,,,Kakva je kraj mene biciklom prošla djevojka?,Kraj mene je biciklom prošla vrlo lijepa djevojka.,ai,,,27,,,
,context,canvas.Screen,2_15_0_0,,,,,,response,3265,232629,232630,232671,235936,235937,2024-07-30T20:30:11.791Z,235980,vgGmJ1sEeR,incremental,anketa,6645cf40bc81b65c5faccf1d,participant,hcpib7dulz8vawka,,,click,,Stare su samo Čehovljeve priče bile u ovoj knjižnici..,Samo su Čehovljeve priče bile stare u ovoj knjižnici..,di,35,35,33,,,
,Timer frame,html.Frame,2_15_0,,,,,,,3266,232629,232630,232671,235937,235937,2024-07-30T20:30:11.791Z,235980,vgGmJ1sEeR,incremental,anketa,6645cf40bc81b65c5faccf1d,participant,hcpib7dulz8vawka,,,,,Stare su samo Čehovljeve priče bile u ovoj knjižnici..,Samo su Čehovljeve priče bile stare u ovoj knjižnici..,di,35,35,33,,,
,stimulus,canvas.Screen,2_15_1_0,,,,,,response,2345.000000000029,235938.00000000003,235940,235980,238325.00000000003,238326,2024-07-30T20:30:14.180Z,238387,vgGmJ1sEeR,incremental,anketa,6645cf40bc81b65c5faccf1d,participant,hcpib7dulz8vawka,,1,click @1,,Stare su samo Čehovljeve priče bile u ovoj knjižnici..,Samo su Čehovljeve priče bile stare u ovoj knjižnici..,di,35,35,33,,,
,Timer frame,html.Frame,2_15_1,,,,,,,2346,235937,235940,235980,238326,238326,2024-07-30T20:30:14.180Z,238387,vgGmJ1sEeR,incremental,anketa,6645cf40bc81b65c5faccf1d,participant,hcpib7dulz8vawka,,,,,Stare su samo Čehovljeve priče bile u ovoj knjižnici..,Samo su Čehovljeve priče bile stare u ovoj knjižnici..,di,35,35,33,,,
,Spremanje,canvas.Screen,2_15_2,,,,,,skipped,,238326,,,238326,238326,2024-07-30T20:30:14.180Z,238387,vgGmJ1sEeR,incremental,anketa,6645cf40bc81b65c5faccf1d,participant,hcpib7dulz8vawka,,,,,Stare su samo Čehovljeve priče bile u ovoj knjižnici..,Samo su Čehovljeve priče bile stare u ovoj knjižnici..,di,35,35,33,,,
,Question form,html.Form,2_15_3,,,,,,skipped,,238326,,,238326,238327,2024-07-30T20:30:14.181Z,238387,vgGmJ1sEeR,incremental,anketa,6645cf40bc81b65c5faccf1d,participant,hcpib7dulz8vawka,,,,,Stare su samo Čehovljeve priče bile u ovoj knjižnici..,Samo su Čehovljeve priče bile stare u ovoj knjižnici..,di,35,35,33,,,
,Answer indication,canvas.Screen,2_15_4,,,,,,skipped,,238329,,,238326,238329,2024-07-30T20:30:14.183Z,238387,vgGmJ1sEeR,incremental,anketa,6645cf40bc81b65c5faccf1d,participant,hcpib7dulz8vawka,,,,,Stare su samo Čehovljeve priče bile u ovoj knjižnici..,Samo su Čehovljeve priče bile stare u ovoj knjižnici..,di,35,35,33,,,
,inter-stimulus,canvas.Screen,2_15_5,,,,,,response,691,238329,238330,238387,239078,239079,2024-07-30T20:30:14.933Z,239123,vgGmJ1sEeR,incremental,anketa,6645cf40bc81b65c5faccf1d,participant,hcpib7dulz8vawka,,,mousedown,,Stare su samo Čehovljeve priče bile u ovoj knjižnici..,Samo su Čehovljeve priče bile stare u ovoj knjižnici..,di,35,35,33,,,
,Sequence,flow.Sequence,2_15,,,,,,completion,6407,232629,232630,232671,239078,239080,2024-07-30T20:30:14.934Z,239123,vgGmJ1sEeR,incremental,anketa,6645cf40bc81b65c5faccf1d,participant,hcpib7dulz8vawka,,,,,Stare su samo Čehovljeve priče bile u ovoj knjižnici..,Samo su Čehovljeve priče bile stare u ovoj knjižnici..,di,35,35,33,,,
,context,canvas.Screen,2_16_0_0,,,,,,response,2595.000000000029,239080,239081,239123,241718.00000000003,241718.00000000003,2024-07-30T20:30:17.572Z,241764,vgGmJ1sEeR,incremental,anketa,6645cf40bc81b65c5faccf1d,participant,hcpib7dulz8vawka,,,click,,Večeras je Anna nalakirala nokte.,Anna je večeras nalakirala nokte.,gf,,,49,,,
,Timer frame,html.Frame,2_16_0,,,,,,,2596,239080,239081,239123,241719,241719,2024-07-30T20:30:17.573Z,241764,vgGmJ1sEeR,incremental,anketa,6645cf40bc81b65c5faccf1d,participant,hcpib7dulz8vawka,,,,,Večeras je Anna nalakirala nokte.,Anna je večeras nalakirala nokte.,gf,,,49,,,
,stimulus,canvas.Screen,2_16_1_0,,,,,,response,1359.000000000029,241719,241731,241764,243123.00000000003,243124,2024-07-30T20:30:18.978Z,243168,vgGmJ1sEeR,incremental,anketa,6645cf40bc81b65c5faccf1d,participant,hcpib7dulz8vawka,,7,click @7,,Večeras je Anna nalakirala nokte.,Anna je večeras nalakirala nokte.,gf,,,49,,,
,Timer frame,html.Frame,2_16_1,,,,,,,1361,241719,241731,241764,243125,243125,2024-07-30T20:30:18.979Z,243168,vgGmJ1sEeR,incremental,anketa,6645cf40bc81b65c5faccf1d,participant,hcpib7dulz8vawka,,,,,Večeras je Anna nalakirala nokte.,Anna je večeras nalakirala nokte.,gf,,,49,,,
,Spremanje,canvas.Screen,2_16_2,,,,,,skipped,,243125,,,243125,243125,2024-07-30T20:30:18.979Z,243168,vgGmJ1sEeR,incremental,anketa,6645cf40bc81b65c5faccf1d,participant,hcpib7dulz8vawka,,,,,Večeras je Anna nalakirala nokte.,Anna je večeras nalakirala nokte.,gf,,,49,,,
,Question form,html.Form,2_16_3,,,,,,skipped,,243125,,,243125,243125,2024-07-30T20:30:18.979Z,243168,vgGmJ1sEeR,incremental,anketa,6645cf40bc81b65c5faccf1d,participant,hcpib7dulz8vawka,,,,,Večeras je Anna nalakirala nokte.,Anna je večeras nalakirala nokte.,gf,,,49,,,
,Answer indication,canvas.Screen,2_16_4,,,,,,skipped,,243127,,,243125,243127,2024-07-30T20:30:18.981Z,243168,vgGmJ1sEeR,incremental,anketa,6645cf40bc81b65c5faccf1d,participant,hcpib7dulz8vawka,,,,,Večeras je Anna nalakirala nokte.,Anna je večeras nalakirala nokte.,gf,,,49,,,
,inter-stimulus,canvas.Screen,2_16_5,,,,,,response,739,243127,243129,243168,243907,243908.00000000003,2024-07-30T20:30:19.762Z,243970,vgGmJ1sEeR,incremental,anketa,6645cf40bc81b65c5faccf1d,participant,hcpib7dulz8vawka,,,mousedown,,Večeras je Anna nalakirala nokte.,Anna je večeras nalakirala nokte.,gf,,,49,,,
,Sequence,flow.Sequence,2_16,,,,,,completion,4784,239080,239081,239123,243907,243909,2024-07-30T20:30:19.763Z,243970,vgGmJ1sEeR,incremental,anketa,6645cf40bc81b65c5faccf1d,participant,hcpib7dulz8vawka,,,,,Večeras je Anna nalakirala nokte.,Anna je večeras nalakirala nokte.,gf,,,49,,,
,context,canvas.Screen,2_17_0_0,,,,,,response,2562,243909,243911,243970,246532,246533.00000000003,2024-07-30T20:30:22.387Z,246577,vgGmJ1sEeR,incremental,anketa,6645cf40bc81b65c5faccf1d,participant,hcpib7dulz8vawka,,,click,,Koliko vidim dječaka kojem je ljubazni poštar poklonio bicikla??,Vidim dječaka kojem je ljubazni poštar poklonio dva bicikla..,cnp,38,38,10,,,2305
,Timer frame,html.Frame,2_17_0,,,,,,,2563.000000000029,243909,243911,243970,246533.00000000003,246533.00000000003,2024-07-30T20:30:22.387Z,246577,vgGmJ1sEeR,incremental,anketa,6645cf40bc81b65c5faccf1d,participant,hcpib7dulz8vawka,,,,,Koliko vidim dječaka kojem je ljubazni poštar poklonio bicikla??,Vidim dječaka kojem je ljubazni poštar poklonio dva bicikla..,cnp,38,38,10,,,2305
,stimulus,canvas.Screen,2_17_1_0,,,,,,response,1826,246534,246535,246577,248403,248404,2024-07-30T20:30:24.258Z,248449,vgGmJ1sEeR,incremental,anketa,6645cf40bc81b65c5faccf1d,participant,hcpib7dulz8vawka,,1,click @1,,Koliko vidim dječaka kojem je ljubazni poštar poklonio bicikla??,Vidim dječaka kojem je ljubazni poštar poklonio dva bicikla..,cnp,38,38,10,,,2305
,Timer frame,html.Frame,2_17_1,,,,,,,1828,246534,246535,246577,248405,248405,2024-07-30T20:30:24.259Z,248449,vgGmJ1sEeR,incremental,anketa,6645cf40bc81b65c5faccf1d,participant,hcpib7dulz8vawka,,,,,Koliko vidim dječaka kojem je ljubazni poštar poklonio bicikla??,Vidim dječaka kojem je ljubazni poštar poklonio dva bicikla..,cnp,38,38,10,,,2305
,Spremanje,canvas.Screen,2_17_2,,,,,,skipped,,248405,,,248405,248405,2024-07-30T20:30:24.259Z,248449,vgGmJ1sEeR,incremental,anketa,6645cf40bc81b65c5faccf1d,participant,hcpib7dulz8vawka,,,,,Koliko vidim dječaka kojem je ljubazni poštar poklonio bicikla??,Vidim dječaka kojem je ljubazni poštar poklonio dva bicikla..,cnp,38,38,10,,,2305
,Question form,html.Form,2_17_3,,,,,,skipped,,248405,,,248405,248405,2024-07-30T20:30:24.259Z,248449,vgGmJ1sEeR,incremental,anketa,6645cf40bc81b65c5faccf1d,participant,hcpib7dulz8vawka,,,,,Koliko vidim dječaka kojem je ljubazni poštar poklonio bicikla??,Vidim dječaka kojem je ljubazni poštar poklonio dva bicikla..,cnp,38,38,10,,,2305
,Answer indication,canvas.Screen,2_17_4,,,,,,skipped,,248407,,,248405,248407,2024-07-30T20:30:24.261Z,248449,vgGmJ1sEeR,incremental,anketa,6645cf40bc81b65c5faccf1d,participant,hcpib7dulz8vawka,,,,,Koliko vidim dječaka kojem je ljubazni poštar poklonio bicikla??,Vidim dječaka kojem je ljubazni poštar poklonio dva bicikla..,cnp,38,38,10,,,2305
,inter-stimulus,canvas.Screen,2_17_5,,,,,,response,673,248407,248408,248449,249122,249122,2024-07-30T20:30:24.976Z,249185,vgGmJ1sEeR,incremental,anketa,6645cf40bc81b65c5faccf1d,participant,hcpib7dulz8vawka,,,mousedown,,Koliko vidim dječaka kojem je ljubazni poštar poklonio bicikla??,Vidim dječaka kojem je ljubazni poštar poklonio dva bicikla..,cnp,38,38,10,,,2305
,Sequence,flow.Sequence,2_17,,,,,,completion,5152,243909,243911,243970,249122,249123.00000000003,2024-07-30T20:30:24.977Z,249185,vgGmJ1sEeR,incremental,anketa,6645cf40bc81b65c5faccf1d,participant,hcpib7dulz8vawka,,,,,Koliko vidim dječaka kojem je ljubazni poštar poklonio bicikla??,Vidim dječaka kojem je ljubazni poštar poklonio dva bicikla..,cnp,38,38,10,,,2305