meta,sender,sender_type,sender_id,age,education,croatian-knowledge,occupation,,ended_on,duration,time_run,time_render,time_show,time_end,time_commit,timestamp,time_switch,openLabId,type,task,project,status,code,confirmationCode,response,response_action,answer_true,stimulus,context,island_type,transfer_s,transfer_c,id,right_answer,question,change_date
"{""labjs_version"":""20.2.4"",""labjs_build"":{""flavor"":""production"",""commit"":""f5b4a49f956347addd546a832a3327688c2c0fef""},""location"":""https://open-lab.online/test/anketa/66a91215e3bab725623a411b"",""userAgent"":""Mozilla/5.0 (Linux; Android 10; K) AppleWebKit/537.36 (KHTML, like Gecko) Chrome/127.0.0.0 Mobile Safari/537.36 EdgA/127.0.0.0"",""platform"":""Linux armv81"",""language"":""hr-HR"",""locale"":""hr"",""timeZone"":""Europe/Zagreb"",""timezoneOffset"":-120,""screen_width"":412,""screen_height"":915,""scroll_width"":980,""scroll_height"":1943,""window_innerWidth"":980,""window_innerHeight"":1867,""devicePixelRatio"":3.5}",Demography form,html.Form,0,47,master,mother-tongue,dipl. ing. prometa,,form submission,44899.79999999851,1069,1076.766,1093.1,45992.89999999851,45993.89999999851,2024-07-30T16:18:11.100Z,46058,WXvo7egSFR,incremental,anketa,6645cf40bc81b65c5faccf1d,participant,hcpib7dulz8mfr6x,160234,,,,,,,,,,,,
,context,canvas.Screen,1_0,,,,,,response,22315.19999999553,45994.39999999851,45983.4,46058,68373.19999999553,68563.19999999553,2024-07-30T16:18:33.669Z,68624.9,WXvo7egSFR,incremental,anketa,6645cf40bc81b65c5faccf1d,participant,hcpib7dulz8mfr6x,,,click,,,,,,,,,,
,stimulus,canvas.Screen,1_1,,,,,,response,20892.699999994045,68563.39999999851,68559,68624.9,89517.59999999404,89721.39999999851,2024-07-30T16:18:54.828Z,89796.5,WXvo7egSFR,incremental,anketa,6645cf40bc81b65c5faccf1d,participant,hcpib7dulz8mfr6x,,5,click @5,,,,,,,,,,
,inter-stimulus,canvas.Screen,1_2,,,,,,response,13572.09999999404,89722.19999999553,89722.3,89796.5,103368.59999999404,103597.59999999404,2024-07-30T16:19:08.704Z,103668.9,WXvo7egSFR,incremental,anketa,6645cf40bc81b65c5faccf1d,participant,hcpib7dulz8mfr6x,,,mousedown,,,,,,,,,,
,context,canvas.Screen,1_3,,,,,,response,7528.100000000006,103598.39999999851,103602.9,103668.9,111197,111416.19999999553,2024-07-30T16:19:16.522Z,111496.8,WXvo7egSFR,incremental,anketa,6645cf40bc81b65c5faccf1d,participant,hcpib7dulz8mfr6x,,,click,,,,,,,,,,
,stimulus,canvas.Screen,1_4,,,,,,response,4436.799999994037,111417.39999999851,111413.4,111496.8,115933.59999999404,116115.89999999851,2024-07-30T16:19:21.222Z,116185.3,WXvo7egSFR,incremental,anketa,6645cf40bc81b65c5faccf1d,participant,hcpib7dulz8mfr6x,,1,click @1,,,,,,,,,,
,inter-stimulus,canvas.Screen,1_5,,,,,,response,2108.999999997017,116117.09999999404,116118.6,116185.3,118294.29999999702,118559.69999999553,2024-07-30T16:19:23.666Z,118617.6,WXvo7egSFR,incremental,anketa,6645cf40bc81b65c5faccf1d,participant,hcpib7dulz8mfr6x,,,mousedown,,,,,,,,,,
,context,canvas.Screen,1_6,,,,,,response,6124.499999994034,118560,118559.2,118617.6,124742.09999999404,125011.39999999851,2024-07-30T16:19:30.118Z,125085.8,WXvo7egSFR,incremental,anketa,6645cf40bc81b65c5faccf1d,participant,hcpib7dulz8mfr6x,,,click,,,,,,,,,,
,stimulus,canvas.Screen,1_7_0,,,,,,response,6041.999999997017,125021.29999999702,125010.8,125085.8,131127.79999999702,131335.8999999985,2024-07-30T16:19:36.442Z,131410.7,WXvo7egSFR,incremental,anketa,6645cf40bc81b65c5faccf1d,participant,hcpib7dulz8mfr6x,,7,click @7,,,,,,,,,,
,Timer frame,html.Frame,1_7,,,,,,,6252.399999995527,125013.59999999404,125010.8,125085.8,131338.19999999553,131339.79999999702,2024-07-30T16:19:36.446Z,131410.7,WXvo7egSFR,incremental,anketa,6645cf40bc81b65c5faccf1d,participant,hcpib7dulz8mfr6x,,,,,,,,,,,,,
,Screen,canvas.Screen,1_8,,,,,,response,7180.899999994028,131340.29999999702,131327.3,131410.7,138591.59999999404,138786.8999999985,2024-07-30T16:19:43.893Z,138804.5,WXvo7egSFR,incremental,anketa,6645cf40bc81b65c5faccf1d,participant,hcpib7dulz8mfr6x,,,mousedown,,,,,,,,,,
,Question form,html.Form,1_9,,,,,,form submission,11124.69999999553,138788.79999999702,138787.9,138804.5,149929.19999999553,149929.59999999404,2024-07-30T16:19:55.036Z,149985.1,WXvo7egSFR,incremental,anketa,6645cf40bc81b65c5faccf1d,participant,hcpib7dulz8mfr6x,,,,Zrele.,,,,,,,,,
,Screen,canvas.Screen,1_10,,,,,,response,4840.099999995524,149931.09999999404,149969.53,149985.1,154825.19999999553,155049,2024-07-30T16:20:00.155Z,155099.7,WXvo7egSFR,incremental,anketa,6645cf40bc81b65c5faccf1d,participant,hcpib7dulz8mfr6x,,,mousedown,,,,,,,,,,
,inter-stimulus,canvas.Screen,1_11,,,,,,response,4730.999999995518,155049.09999999404,155049.7,155099.7,159830.69999999553,160084,2024-07-30T16:20:05.190Z,160151.5,WXvo7egSFR,incremental,anketa,6645cf40bc81b65c5faccf1d,participant,hcpib7dulz8mfr6x,,,mousedown,,,,,,,,,,
,First stimuli,flow.Sequence,1,,,,,,completion,113772.69999999553,45994.39999999851,45983.4,46058,159830.69999999553,160091.29999999702,2024-07-30T16:20:05.197Z,160151.5,WXvo7egSFR,incremental,anketa,6645cf40bc81b65c5faccf1d,participant,hcpib7dulz8mfr6x,,,,,,,,,,,,,
,context,canvas.Screen,2_0_0_0,,,,,,response,4363.89999999851,160093.59999999404,160084.8,160151.5,164515.3999999985,164711,2024-07-30T16:20:09.817Z,164787.1,WXvo7egSFR,incremental,anketa,6645cf40bc81b65c5faccf1d,participant,hcpib7dulz8mfr6x,,,click,,Tko ono da je prodao svoj stan za toliki novac nevjerojatno je??,Ono da je Goran prodao svoj stan za toliki novac nevjerojatno je..,si,30,32,17,,,
,Timer frame,html.Frame,2_0_0,,,,,,,4560.69999999553,160092.69999999553,160084.8,160151.5,164712.19999999553,164714.8999999985,2024-07-30T16:20:09.821Z,164787.1,WXvo7egSFR,incremental,anketa,6645cf40bc81b65c5faccf1d,participant,hcpib7dulz8mfr6x,,,,,Tko ono da je prodao svoj stan za toliki novac nevjerojatno je??,Ono da je Goran prodao svoj stan za toliki novac nevjerojatno je..,si,30,32,17,,,
,stimulus,canvas.Screen,2_0_1_0,,,,,,response,4712.999999994034,164717,164712.9,164787.1,169500.09999999404,169713.3999999985,2024-07-30T16:20:14.819Z,169802.2,WXvo7egSFR,incremental,anketa,6645cf40bc81b65c5faccf1d,participant,hcpib7dulz8mfr6x,,1,click @1,,Tko ono da je prodao svoj stan za toliki novac nevjerojatno je??,Ono da je Goran prodao svoj stan za toliki novac nevjerojatno je..,si,30,32,17,,,
,Timer frame,html.Frame,2_0_1,,,,,,,4926.999999994034,164715.3999999985,164712.9,164787.1,169714.09999999404,169716,2024-07-30T16:20:14.822Z,169802.2,WXvo7egSFR,incremental,anketa,6645cf40bc81b65c5faccf1d,participant,hcpib7dulz8mfr6x,,,,,Tko ono da je prodao svoj stan za toliki novac nevjerojatno je??,Ono da je Goran prodao svoj stan za toliki novac nevjerojatno je..,si,30,32,17,,,
,Spremanje,canvas.Screen,2_0_2,,,,,,skipped,,169716.59999999404,,,169714.09999999404,169717,2024-07-30T16:20:14.823Z,169802.2,WXvo7egSFR,incremental,anketa,6645cf40bc81b65c5faccf1d,participant,hcpib7dulz8mfr6x,,,,,Tko ono da je prodao svoj stan za toliki novac nevjerojatno je??,Ono da je Goran prodao svoj stan za toliki novac nevjerojatno je..,si,30,32,17,,,
,Question form,html.Form,2_0_3,,,,,,skipped,,169717.29999999702,,,169714.09999999404,169717.79999999702,2024-07-30T16:20:14.824Z,169802.2,WXvo7egSFR,incremental,anketa,6645cf40bc81b65c5faccf1d,participant,hcpib7dulz8mfr6x,,,,,Tko ono da je prodao svoj stan za toliki novac nevjerojatno je??,Ono da je Goran prodao svoj stan za toliki novac nevjerojatno je..,si,30,32,17,,,
,Answer indication,canvas.Screen,2_0_4,,,,,,skipped,,169725.09999999404,,,169714.09999999404,169725.5,2024-07-30T16:20:14.832Z,169802.2,WXvo7egSFR,incremental,anketa,6645cf40bc81b65c5faccf1d,participant,hcpib7dulz8mfr6x,,,,,Tko ono da je prodao svoj stan za toliki novac nevjerojatno je??,Ono da je Goran prodao svoj stan za toliki novac nevjerojatno je..,si,30,32,17,,,
,inter-stimulus,canvas.Screen,2_0_5,,,,,,response,1997.5999999970081,169725.79999999702,169710.5,169802.2,171799.79999999702,172019.79999999702,2024-07-30T16:20:17.126Z,172067.6,WXvo7egSFR,incremental,anketa,6645cf40bc81b65c5faccf1d,participant,hcpib7dulz8mfr6x,,,mousedown,,Tko ono da je prodao svoj stan za toliki novac nevjerojatno je??,Ono da je Goran prodao svoj stan za toliki novac nevjerojatno je..,si,30,32,17,,,
,Sequence,flow.Sequence,2_0,,,,,,completion,11648.29999999702,160092.5,160084.8,160151.5,171799.79999999702,172020.29999999702,2024-07-30T16:20:17.126Z,172067.6,WXvo7egSFR,incremental,anketa,6645cf40bc81b65c5faccf1d,participant,hcpib7dulz8mfr6x,,,,,Tko ono da je prodao svoj stan za toliki novac nevjerojatno je??,Ono da je Goran prodao svoj stan za toliki novac nevjerojatno je..,si,30,32,17,,,
,context,canvas.Screen,2_1_0_0,,,,,,response,6607.699999997014,172021,172026,172067.6,178675.29999999702,178910.8999999985,2024-07-30T16:20:24.017Z,178975.8,WXvo7egSFR,incremental,anketa,6645cf40bc81b65c5faccf1d,participant,hcpib7dulz8mfr6x,,,click,,Kakve izgrađene u viktorijansko doba te zgrade su izgrađene??,Te su zgrade izgrađene u viktorijansko doba.,nf,36,,43,,,
,Timer frame,html.Frame,2_1_0,,,,,,,6844.199999997014,172020.59999999404,172026,172067.6,178911.79999999702,178912.59999999404,2024-07-30T16:20:24.019Z,178975.8,WXvo7egSFR,incremental,anketa,6645cf40bc81b65c5faccf1d,participant,hcpib7dulz8mfr6x,,,,,Kakve izgrađene u viktorijansko doba te zgrade su izgrađene??,Te su zgrade izgrađene u viktorijansko doba.,nf,36,,43,,,
,stimulus,canvas.Screen,2_1_1_0,,,,,,response,5034.299999994051,178914.19999999553,178909,178975.8,184010.09999999404,184211.3999999985,2024-07-30T16:20:29.317Z,184285,WXvo7egSFR,incremental,anketa,6645cf40bc81b65c5faccf1d,participant,hcpib7dulz8mfr6x,,1,click @1,,Kakve izgrađene u viktorijansko doba te zgrade su izgrađene??,Te su zgrade izgrađene u viktorijansko doba.,nf,36,,43,,,
,Timer frame,html.Frame,2_1_1,,,,,,,5236.299999994051,178913.19999999553,178909,178975.8,184212.09999999404,184212.8999999985,2024-07-30T16:20:29.319Z,184285,WXvo7egSFR,incremental,anketa,6645cf40bc81b65c5faccf1d,participant,hcpib7dulz8mfr6x,,,,,Kakve izgrađene u viktorijansko doba te zgrade su izgrađene??,Te su zgrade izgrađene u viktorijansko doba.,nf,36,,43,,,
,Spremanje,canvas.Screen,2_1_2,,,,,,skipped,,184213.29999999702,,,184212.09999999404,184213.59999999404,2024-07-30T16:20:29.320Z,184285,WXvo7egSFR,incremental,anketa,6645cf40bc81b65c5faccf1d,participant,hcpib7dulz8mfr6x,,,,,Kakve izgrađene u viktorijansko doba te zgrade su izgrađene??,Te su zgrade izgrađene u viktorijansko doba.,nf,36,,43,,,
,Question form,html.Form,2_1_3,,,,,,skipped,,184214,,,184212.09999999404,184214.5,2024-07-30T16:20:29.321Z,184285,WXvo7egSFR,incremental,anketa,6645cf40bc81b65c5faccf1d,participant,hcpib7dulz8mfr6x,,,,,Kakve izgrađene u viktorijansko doba te zgrade su izgrađene??,Te su zgrade izgrađene u viktorijansko doba.,nf,36,,43,,,
,Answer indication,canvas.Screen,2_1_4,,,,,,skipped,,184221.09999999404,,,184212.09999999404,184221.5,2024-07-30T16:20:29.328Z,184285,WXvo7egSFR,incremental,anketa,6645cf40bc81b65c5faccf1d,participant,hcpib7dulz8mfr6x,,,,,Kakve izgrađene u viktorijansko doba te zgrade su izgrađene??,Te su zgrade izgrađene u viktorijansko doba.,nf,36,,43,,,
,inter-stimulus,canvas.Screen,2_1_5,,,,,,response,840.5999999940395,184221.79999999702,184201.7,184285,185125.59999999404,185366.8999999985,2024-07-30T16:20:30.473Z,185424.2,WXvo7egSFR,incremental,anketa,6645cf40bc81b65c5faccf1d,participant,hcpib7dulz8mfr6x,,,mousedown,,Kakve izgrađene u viktorijansko doba te zgrade su izgrađene??,Te su zgrade izgrađene u viktorijansko doba.,nf,36,,43,,,
,Sequence,flow.Sequence,2_1,,,,,,completion,13057.999999994034,172020.5,172026,172067.6,185125.59999999404,185367.69999999553,2024-07-30T16:20:30.474Z,185424.2,WXvo7egSFR,incremental,anketa,6645cf40bc81b65c5faccf1d,participant,hcpib7dulz8mfr6x,,,,,Kakve izgrađene u viktorijansko doba te zgrade su izgrađene??,Te su zgrade izgrađene u viktorijansko doba.,nf,36,,43,,,
,context,canvas.Screen,2_2_0_0,,,,,,response,3774.399999994028,185369.09999999404,185365.9,185424.2,189198.59999999404,189462,2024-07-30T16:20:34.568Z,189525.3,WXvo7egSFR,incremental,anketa,6645cf40bc81b65c5faccf1d,participant,hcpib7dulz8mfr6x,,,click,,Što želiš da pronaći nije bilo teško?,Pronaći apoteku nije bilo teško.,si,,,14,,,2305
,Timer frame,html.Frame,2_2_0,,,,,,,4038.2999999999884,185368.19999999553,185365.9,185424.2,189462.5,189463,2024-07-30T16:20:34.569Z,189525.3,WXvo7egSFR,incremental,anketa,6645cf40bc81b65c5faccf1d,participant,hcpib7dulz8mfr6x,,,,,Što želiš da pronaći nije bilo teško?,Pronaći apoteku nije bilo teško.,si,,,14,,,2305
,stimulus,canvas.Screen,2_2_1_0,,,,,,response,2887.799999994051,189464.09999999404,189458.7,189525.3,192413.09999999404,192660.59999999404,2024-07-30T16:20:37.767Z,192734.1,WXvo7egSFR,incremental,anketa,6645cf40bc81b65c5faccf1d,participant,hcpib7dulz8mfr6x,,1,click @1,,Što želiš da pronaći nije bilo teško?,Pronaći apoteku nije bilo teško.,si,,,14,,,2305
,Timer frame,html.Frame,2_2_1,,,,,,,3136.4999999970314,189463.29999999702,189458.7,189525.3,192661.79999999702,192662.5,2024-07-30T16:20:37.769Z,192734.1,WXvo7egSFR,incremental,anketa,6645cf40bc81b65c5faccf1d,participant,hcpib7dulz8mfr6x,,,,,Što želiš da pronaći nije bilo teško?,Pronaći apoteku nije bilo teško.,si,,,14,,,2305
,Spremanje,canvas.Screen,2_2_2,,,,,,skipped,,192663.19999999553,,,192661.79999999702,192663.69999999553,2024-07-30T16:20:37.770Z,192734.1,WXvo7egSFR,incremental,anketa,6645cf40bc81b65c5faccf1d,participant,hcpib7dulz8mfr6x,,,,,Što želiš da pronaći nije bilo teško?,Pronaći apoteku nije bilo teško.,si,,,14,,,2305
,Question form,html.Form,2_2_3,,,,,,skipped,,192664.3999999985,,,192661.79999999702,192664.79999999702,2024-07-30T16:20:37.771Z,192734.1,WXvo7egSFR,incremental,anketa,6645cf40bc81b65c5faccf1d,participant,hcpib7dulz8mfr6x,,,,,Što želiš da pronaći nije bilo teško?,Pronaći apoteku nije bilo teško.,si,,,14,,,2305
,Answer indication,canvas.Screen,2_2_4,,,,,,skipped,,192670.29999999702,,,192661.79999999702,192670.59999999404,2024-07-30T16:20:37.777Z,192734.1,WXvo7egSFR,incremental,anketa,6645cf40bc81b65c5faccf1d,participant,hcpib7dulz8mfr6x,,,,,Što želiš da pronaći nije bilo teško?,Pronaći apoteku nije bilo teško.,si,,,14,,,2305
,inter-stimulus,canvas.Screen,2_2_5,,,,,,response,571.699999997014,192671.09999999404,192659.1,192734.1,193305.79999999702,193534.19999999553,2024-07-30T16:20:38.640Z,193590.1,WXvo7egSFR,incremental,anketa,6645cf40bc81b65c5faccf1d,participant,hcpib7dulz8mfr6x,,,mousedown,,Što želiš da pronaći nije bilo teško?,Pronaći apoteku nije bilo teško.,si,,,14,,,2305
,Sequence,flow.Sequence,2_2,,,,,,completion,7881.599999997008,185368,185365.9,185424.2,193305.79999999702,193535.09999999404,2024-07-30T16:20:38.641Z,193590.1,WXvo7egSFR,incremental,anketa,6645cf40bc81b65c5faccf1d,participant,hcpib7dulz8mfr6x,,,,,Što želiš da pronaći nije bilo teško?,Pronaći apoteku nije bilo teško.,si,,,14,,,2305
,context,canvas.Screen,2_3_0_0,,,,,,response,5601.099999995524,193536.09999999404,193540.1,193590.1,199191.19999999553,199390.79999999702,2024-07-30T16:20:44.497Z,199448.2,WXvo7egSFR,incremental,anketa,6645cf40bc81b65c5faccf1d,participant,hcpib7dulz8mfr6x,,,click,,Što si saznao tužnu vijest da je Petar izgubio u podzemnoj??,Saznao si tužnu vijest da je Petar izgubio putovnicu u podzemnoj..,cnp,38,34,9,,,
,Timer frame,html.Frame,2_3_0,,,,,,,5801.199999997014,193535.5,193540.1,193590.1,199391.29999999702,199391.69999999553,2024-07-30T16:20:44.498Z,199448.2,WXvo7egSFR,incremental,anketa,6645cf40bc81b65c5faccf1d,participant,hcpib7dulz8mfr6x,,,,,Što si saznao tužnu vijest da je Petar izgubio u podzemnoj??,Saznao si tužnu vijest da je Petar izgubio putovnicu u podzemnoj..,cnp,38,34,9,,,
,stimulus,canvas.Screen,2_3_1_0,,,,,,response,4448.599999997008,199393.09999999404,199389.8,199448.2,203896.79999999702,204108.69999999553,2024-07-30T16:20:49.215Z,204174.2,WXvo7egSFR,incremental,anketa,6645cf40bc81b65c5faccf1d,participant,hcpib7dulz8mfr6x,,1,click @1,,Što si saznao tužnu vijest da je Petar izgubio u podzemnoj??,Saznao si tužnu vijest da je Petar izgubio putovnicu u podzemnoj..,cnp,38,34,9,,,
,Timer frame,html.Frame,2_3_1,,,,,,,4660.899999994028,199392,199389.8,199448.2,204109.09999999404,204109.5,2024-07-30T16:20:49.216Z,204174.2,WXvo7egSFR,incremental,anketa,6645cf40bc81b65c5faccf1d,participant,hcpib7dulz8mfr6x,,,,,Što si saznao tužnu vijest da je Petar izgubio u podzemnoj??,Saznao si tužnu vijest da je Petar izgubio putovnicu u podzemnoj..,cnp,38,34,9,,,
,Spremanje,canvas.Screen,2_3_2,,,,,,skipped,,204109.79999999702,,,204109.09999999404,204110,2024-07-30T16:20:49.216Z,204174.2,WXvo7egSFR,incremental,anketa,6645cf40bc81b65c5faccf1d,participant,hcpib7dulz8mfr6x,,,,,Što si saznao tužnu vijest da je Petar izgubio u podzemnoj??,Saznao si tužnu vijest da je Petar izgubio putovnicu u podzemnoj..,cnp,38,34,9,,,
,Question form,html.Form,2_3_3,,,,,,skipped,,204110.19999999553,,,204109.09999999404,204110.5,2024-07-30T16:20:49.217Z,204174.2,WXvo7egSFR,incremental,anketa,6645cf40bc81b65c5faccf1d,participant,hcpib7dulz8mfr6x,,,,,Što si saznao tužnu vijest da je Petar izgubio u podzemnoj??,Saznao si tužnu vijest da je Petar izgubio putovnicu u podzemnoj..,cnp,38,34,9,,,
,Answer indication,canvas.Screen,2_3_4,,,,,,skipped,,204113.19999999553,,,204109.09999999404,204113.3999999985,2024-07-30T16:20:49.220Z,204174.2,WXvo7egSFR,incremental,anketa,6645cf40bc81b65c5faccf1d,participant,hcpib7dulz8mfr6x,,,,,Što si saznao tužnu vijest da je Petar izgubio u podzemnoj??,Saznao si tužnu vijest da je Petar izgubio putovnicu u podzemnoj..,cnp,38,34,9,,,
,inter-stimulus,canvas.Screen,2_3_5,,,,,,response,829.0999999970081,204113.5,204108.2,204174.2,205003.29999999702,205255.59999999404,2024-07-30T16:20:50.362Z,205312,WXvo7egSFR,incremental,anketa,6645cf40bc81b65c5faccf1d,participant,hcpib7dulz8mfr6x,,,mousedown,,Što si saznao tužnu vijest da je Petar izgubio u podzemnoj??,Saznao si tužnu vijest da je Petar izgubio putovnicu u podzemnoj..,cnp,38,34,9,,,
,Sequence,flow.Sequence,2_3,,,,,,completion,11413.199999997014,193535.29999999702,193540.1,193590.1,205003.29999999702,205257.5,2024-07-30T16:20:50.364Z,205312,WXvo7egSFR,incremental,anketa,6645cf40bc81b65c5faccf1d,participant,hcpib7dulz8mfr6x,,,,,Što si saznao tužnu vijest da je Petar izgubio u podzemnoj??,Saznao si tužnu vijest da je Petar izgubio putovnicu u podzemnoj..,cnp,38,34,9,,,
,context,canvas.Screen,2_4_0_0,,,,,,response,2640.5999999940395,205259.09999999404,205254.3,205312,207952.59999999404,208173.3999999985,2024-07-30T16:20:53.280Z,208234.3,WXvo7egSFR,incremental,anketa,6645cf40bc81b65c5faccf1d,participant,hcpib7dulz8mfr6x,,,click,,Ove godine su se Viktor i Marta vjenčao.,Victor i Marta vjenčali su se ove godine.,nf,,,38,,,
,Timer frame,html.Frame,2_4_0,,,,,,,2861.89999999851,205258.09999999404,205254.3,205312,208173.8999999985,208174.3999999985,2024-07-30T16:20:53.280Z,208234.3,WXvo7egSFR,incremental,anketa,6645cf40bc81b65c5faccf1d,participant,hcpib7dulz8mfr6x,,,,,Ove godine su se Viktor i Marta vjenčao.,Victor i Marta vjenčali su se ove godine.,nf,,,38,,,
,stimulus,canvas.Screen,2_4_1_0,,,,,,response,3701.299999994051,208175.59999999404,208167.7,208234.3,211935.59999999404,212141.69999999553,2024-07-30T16:20:57.248Z,212351.7,WXvo7egSFR,incremental,anketa,6645cf40bc81b65c5faccf1d,participant,hcpib7dulz8mfr6x,,1,click @1,,Ove godine su se Viktor i Marta vjenčao.,Victor i Marta vjenčali su se ove godine.,nf,,,38,,,
,Timer frame,html.Frame,2_4_1,,,,,,,3908.4999999970314,208174.69999999553,208167.7,208234.3,212142.79999999702,212143.5,2024-07-30T16:20:57.250Z,212351.7,WXvo7egSFR,incremental,anketa,6645cf40bc81b65c5faccf1d,participant,hcpib7dulz8mfr6x,,,,,Ove godine su se Viktor i Marta vjenčao.,Victor i Marta vjenčali su se ove godine.,nf,,,38,,,
,Spremanje,canvas.Screen,2_4_2,,,,,,skipped,,212144.09999999404,,,212142.79999999702,212144.69999999553,2024-07-30T16:20:57.251Z,212351.7,WXvo7egSFR,incremental,anketa,6645cf40bc81b65c5faccf1d,participant,hcpib7dulz8mfr6x,,,,,Ove godine su se Viktor i Marta vjenčao.,Victor i Marta vjenčali su se ove godine.,nf,,,38,,,
,Question form,html.Form,2_4_3,,,,,,skipped,,212145.09999999404,,,212142.79999999702,212145.5,2024-07-30T16:20:57.252Z,212351.7,WXvo7egSFR,incremental,anketa,6645cf40bc81b65c5faccf1d,participant,hcpib7dulz8mfr6x,,,,,Ove godine su se Viktor i Marta vjenčao.,Victor i Marta vjenčali su se ove godine.,nf,,,38,,,
,Answer indication,canvas.Screen,2_4_4,,,,,,skipped,,212150.8999999985,,,212142.79999999702,212151.29999999702,2024-07-30T16:20:57.257Z,212351.7,WXvo7egSFR,incremental,anketa,6645cf40bc81b65c5faccf1d,participant,hcpib7dulz8mfr6x,,,,,Ove godine su se Viktor i Marta vjenčao.,Victor i Marta vjenčali su se ove godine.,nf,,,38,,,
,inter-stimulus,canvas.Screen,2_4_5,,,,,,response,991.6999999984982,212151.69999999553,212137.4,212351.7,213343.3999999985,213535.69999999553,2024-07-30T16:20:58.642Z,213621.2,WXvo7egSFR,incremental,anketa,6645cf40bc81b65c5faccf1d,participant,hcpib7dulz8mfr6x,,,mousedown,,Ove godine su se Viktor i Marta vjenčao.,Victor i Marta vjenčali su se ove godine.,nf,,,38,,,
,Sequence,flow.Sequence,2_4,,,,,,completion,8031.39999999851,205257.8999999985,205254.3,205312,213343.3999999985,213537.79999999702,2024-07-30T16:20:58.644Z,213621.2,WXvo7egSFR,incremental,anketa,6645cf40bc81b65c5faccf1d,participant,hcpib7dulz8mfr6x,,,,,Ove godine su se Viktor i Marta vjenčao.,Victor i Marta vjenčali su se ove godine.,nf,,,38,,,
,context,canvas.Screen,2_5_0_0,,,,,,response,5765.799999999988,213540,213538.8,213621.2,219387,219582,2024-07-30T16:21:04.688Z,219653.3,WXvo7egSFR,incremental,anketa,6645cf40bc81b65c5faccf1d,participant,hcpib7dulz8mfr6x,,,click,,"Tko se nadaš da će napraviti prezentaciju, a Đure nacrtati sliku??","Nadaš se da će Vesna napraviti prezentaciju, a Đure nacrtati sliku..",csi,42,44,2,,,
,Timer frame,html.Frame,2_5_0,,,,,,,5961.899999994028,213538.79999999702,213538.8,213621.2,219583.09999999404,219584,2024-07-30T16:21:04.690Z,219653.3,WXvo7egSFR,incremental,anketa,6645cf40bc81b65c5faccf1d,participant,hcpib7dulz8mfr6x,,,,,"Tko se nadaš da će napraviti prezentaciju, a Đure nacrtati sliku??","Nadaš se da će Vesna napraviti prezentaciju, a Đure nacrtati sliku..",csi,42,44,2,,,
,stimulus,canvas.Screen,2_5_1_0,,,,,,response,3056.3999999955413,219585.69999999553,219579.1,219653.3,222709.69999999553,222892,2024-07-30T16:21:07.998Z,222946.4,WXvo7egSFR,incremental,anketa,6645cf40bc81b65c5faccf1d,participant,hcpib7dulz8mfr6x,,1,click @1,,"Tko se nadaš da će napraviti prezentaciju, a Đure nacrtati sliku??","Nadaš se da će Vesna napraviti prezentaciju, a Đure nacrtati sliku..",csi,42,44,2,,,
,Timer frame,html.Frame,2_5_1,,,,,,,3238.8999999955413,219584.69999999553,219579.1,219653.3,222892.19999999553,222892.3999999985,2024-07-30T16:21:07.999Z,222946.4,WXvo7egSFR,incremental,anketa,6645cf40bc81b65c5faccf1d,participant,hcpib7dulz8mfr6x,,,,,"Tko se nadaš da će napraviti prezentaciju, a Đure nacrtati sliku??","Nadaš se da će Vesna napraviti prezentaciju, a Đure nacrtati sliku..",csi,42,44,2,,,
,Spremanje,canvas.Screen,2_5_2,,,,,,skipped,,222892.5,,,222892.19999999553,222892.59999999404,2024-07-30T16:21:07.999Z,222946.4,WXvo7egSFR,incremental,anketa,6645cf40bc81b65c5faccf1d,participant,hcpib7dulz8mfr6x,,,,,"Tko se nadaš da će napraviti prezentaciju, a Đure nacrtati sliku??","Nadaš se da će Vesna napraviti prezentaciju, a Đure nacrtati sliku..",csi,42,44,2,,,
,Question form,html.Form,2_5_3,,,,,,skipped,,222892.59999999404,,,222892.19999999553,222892.79999999702,2024-07-30T16:21:07.999Z,222946.4,WXvo7egSFR,incremental,anketa,6645cf40bc81b65c5faccf1d,participant,hcpib7dulz8mfr6x,,,,,"Tko se nadaš da će napraviti prezentaciju, a Đure nacrtati sliku??","Nadaš se da će Vesna napraviti prezentaciju, a Đure nacrtati sliku..",csi,42,44,2,,,
,Answer indication,canvas.Screen,2_5_4,,,,,,skipped,,222893.8999999985,,,222892.19999999553,222894,2024-07-30T16:21:08.000Z,222946.4,WXvo7egSFR,incremental,anketa,6645cf40bc81b65c5faccf1d,participant,hcpib7dulz8mfr6x,,,,,"Tko se nadaš da će napraviti prezentaciju, a Đure nacrtati sliku??","Nadaš se da će Vesna napraviti prezentaciju, a Đure nacrtati sliku..",csi,42,44,2,,,
,inter-stimulus,canvas.Screen,2_5_5,,,,,,response,645.8999999970256,222894,222896.4,222946.4,223592.29999999702,223809.5,2024-07-30T16:21:08.916Z,223854.8,WXvo7egSFR,incremental,anketa,6645cf40bc81b65c5faccf1d,participant,hcpib7dulz8mfr6x,,,mousedown,,"Tko se nadaš da će napraviti prezentaciju, a Đure nacrtati sliku??","Nadaš se da će Vesna napraviti prezentaciju, a Đure nacrtati sliku..",csi,42,44,2,,,
,Sequence,flow.Sequence,2_5,,,,,,completion,9971.099999997008,213538.59999999404,213538.8,213621.2,223592.29999999702,223810.19999999553,2024-07-30T16:21:08.916Z,223854.8,WXvo7egSFR,incremental,anketa,6645cf40bc81b65c5faccf1d,participant,hcpib7dulz8mfr6x,,,,,"Tko se nadaš da će napraviti prezentaciju, a Đure nacrtati sliku??","Nadaš se da će Vesna napraviti prezentaciju, a Đure nacrtati sliku..",csi,42,44,2,,,
,context,canvas.Screen,2_6_0_0,,,,,,response,3917.9999999970314,223811.19999999553,223813,223854.8,227772.79999999702,228001.8999999985,2024-07-30T16:21:13.108Z,228076.7,WXvo7egSFR,incremental,anketa,6645cf40bc81b65c5faccf1d,participant,hcpib7dulz8mfr6x,,,click,,Jedna vrlo duboka tamo postoji pećina.,Tamo postoji jedna vrlo duboka pećina.,lbc,,,37,,,
,Timer frame,html.Frame,2_6_0,,,,,,,4148.200000000012,223810.5,223813,223854.8,228003,228003.79999999702,2024-07-30T16:21:13.110Z,228076.7,WXvo7egSFR,incremental,anketa,6645cf40bc81b65c5faccf1d,participant,hcpib7dulz8mfr6x,,,,,Jedna vrlo duboka tamo postoji pećina.,Tamo postoji jedna vrlo duboka pećina.,lbc,,,37,,,
,stimulus,canvas.Screen,2_6_1_0,,,,,,response,4677.799999999988,228006.09999999404,228002.5,228076.7,232754.5,233002.8999999985,2024-07-30T16:21:18.109Z,233064.7,WXvo7egSFR,incremental,anketa,6645cf40bc81b65c5faccf1d,participant,hcpib7dulz8mfr6x,,2,click @2,,Jedna vrlo duboka tamo postoji pećina.,Tamo postoji jedna vrlo duboka pećina.,lbc,,,37,,,
,Timer frame,html.Frame,2_6_1,,,,,,,4926.699999998498,228004.79999999702,228002.5,228076.7,233003.3999999985,233003.69999999553,2024-07-30T16:21:18.110Z,233064.7,WXvo7egSFR,incremental,anketa,6645cf40bc81b65c5faccf1d,participant,hcpib7dulz8mfr6x,,,,,Jedna vrlo duboka tamo postoji pećina.,Tamo postoji jedna vrlo duboka pećina.,lbc,,,37,,,
,Spremanje,canvas.Screen,2_6_2,,,,,,skipped,,233003.8999999985,,,233003.3999999985,233004.19999999553,2024-07-30T16:21:18.110Z,233064.7,WXvo7egSFR,incremental,anketa,6645cf40bc81b65c5faccf1d,participant,hcpib7dulz8mfr6x,,,,,Jedna vrlo duboka tamo postoji pećina.,Tamo postoji jedna vrlo duboka pećina.,lbc,,,37,,,
,Question form,html.Form,2_6_3,,,,,,skipped,,233004.5,,,233003.3999999985,233004.79999999702,2024-07-30T16:21:18.111Z,233064.7,WXvo7egSFR,incremental,anketa,6645cf40bc81b65c5faccf1d,participant,hcpib7dulz8mfr6x,,,,,Jedna vrlo duboka tamo postoji pećina.,Tamo postoji jedna vrlo duboka pećina.,lbc,,,37,,,
,Answer indication,canvas.Screen,2_6_4,,,,,,skipped,,233007.59999999404,,,233003.3999999985,233007.8999999985,2024-07-30T16:21:18.114Z,233064.7,WXvo7egSFR,incremental,anketa,6645cf40bc81b65c5faccf1d,participant,hcpib7dulz8mfr6x,,,,,Jedna vrlo duboka tamo postoji pećina.,Tamo postoji jedna vrlo duboka pećina.,lbc,,,37,,,
,inter-stimulus,canvas.Screen,2_6_5,,,,,,response,798.8999999940279,233008.09999999404,232998.1,233064.7,233863.59999999404,234090.5,2024-07-30T16:21:19.197Z,234158.1,WXvo7egSFR,incremental,anketa,6645cf40bc81b65c5faccf1d,participant,hcpib7dulz8mfr6x,,,mousedown,,Jedna vrlo duboka tamo postoji pećina.,Tamo postoji jedna vrlo duboka pećina.,lbc,,,37,,,
,Sequence,flow.Sequence,2_6,,,,,,completion,10008.799999994051,223810.5,223813,223854.8,233863.59999999404,234092.69999999553,2024-07-30T16:21:19.199Z,234158.1,WXvo7egSFR,incremental,anketa,6645cf40bc81b65c5faccf1d,participant,hcpib7dulz8mfr6x,,,,,Jedna vrlo duboka tamo postoji pećina.,Tamo postoji jedna vrlo duboka pećina.,lbc,,,37,,,
,context,canvas.Screen,2_7_0_0,,,,,,response,2283.399999999994,234095,234091.6,234158.1,236441.5,236636.79999999702,2024-07-30T16:21:21.743Z,236715.4,WXvo7egSFR,incremental,anketa,6645cf40bc81b65c5faccf1d,participant,hcpib7dulz8mfr6x,,,click,,Što je Inna tri sata pročitala?,Inna je tri sata čitala zanimljiv članak.,nf,,,39,,,
,Timer frame,html.Frame,2_7_0,,,,,,,2479.899999999994,234093.79999999702,234091.6,234158.1,236638,236638.69999999553,2024-07-30T16:21:21.745Z,236715.4,WXvo7egSFR,incremental,anketa,6645cf40bc81b65c5faccf1d,participant,hcpib7dulz8mfr6x,,,,,Što je Inna tri sata pročitala?,Inna je tri sata čitala zanimljiv članak.,nf,,,39,,,
,stimulus,canvas.Screen,2_7_1_0,,,,,,response,5427.899999997026,236640.8999999985,236633,236715.4,242143.29999999702,242340.59999999404,2024-07-30T16:21:27.447Z,242414.1,WXvo7egSFR,incremental,anketa,6645cf40bc81b65c5faccf1d,participant,hcpib7dulz8mfr6x,,1,click @1,,Što je Inna tri sata pročitala?,Inna je tri sata čitala zanimljiv članak.,nf,,,39,,,
,Timer frame,html.Frame,2_7_1,,,,,,,5626.2999999955355,236639.3999999985,236633,236715.4,242341.69999999553,242342.5,2024-07-30T16:21:27.449Z,242414.1,WXvo7egSFR,incremental,anketa,6645cf40bc81b65c5faccf1d,participant,hcpib7dulz8mfr6x,,,,,Što je Inna tri sata pročitala?,Inna je tri sata čitala zanimljiv članak.,nf,,,39,,,
,Spremanje,canvas.Screen,2_7_2,,,,,,skipped,,242343,,,242341.69999999553,242343.59999999404,2024-07-30T16:21:27.450Z,242414.1,WXvo7egSFR,incremental,anketa,6645cf40bc81b65c5faccf1d,participant,hcpib7dulz8mfr6x,,,,,Što je Inna tri sata pročitala?,Inna je tri sata čitala zanimljiv članak.,nf,,,39,,,
,Question form,html.Form,2_7_3,,,,,,skipped,,242344.09999999404,,,242341.69999999553,242345.09999999404,2024-07-30T16:21:27.451Z,242414.1,WXvo7egSFR,incremental,anketa,6645cf40bc81b65c5faccf1d,participant,hcpib7dulz8mfr6x,,,,,Što je Inna tri sata pročitala?,Inna je tri sata čitala zanimljiv članak.,nf,,,39,,,
,Answer indication,canvas.Screen,2_7_4,,,,,,skipped,,242350.59999999404,,,242341.69999999553,242351,2024-07-30T16:21:27.457Z,242414.1,WXvo7egSFR,incremental,anketa,6645cf40bc81b65c5faccf1d,participant,hcpib7dulz8mfr6x,,,,,Što je Inna tri sata pročitala?,Inna je tri sata čitala zanimljiv članak.,nf,,,39,,,
,inter-stimulus,canvas.Screen,2_7_5,,,,,,response,583.7999999985041,242351.3999999985,242330.7,242414.1,242997.8999999985,243212.19999999553,2024-07-30T16:21:28.318Z,243264.1,WXvo7egSFR,incremental,anketa,6645cf40bc81b65c5faccf1d,participant,hcpib7dulz8mfr6x,,,mousedown,,Što je Inna tri sata pročitala?,Inna je tri sata čitala zanimljiv članak.,nf,,,39,,,
,Sequence,flow.Sequence,2_7,,,,,,completion,8839.799999998504,234093.5,234091.6,234158.1,242997.8999999985,243213,2024-07-30T16:21:28.319Z,243264.1,WXvo7egSFR,incremental,anketa,6645cf40bc81b65c5faccf1d,participant,hcpib7dulz8mfr6x,,,,,Što je Inna tri sata pročitala?,Inna je tri sata čitala zanimljiv članak.,nf,,,39,,,
,context,canvas.Screen,2_8_0_0,,,,,,response,2409.299999998504,243214.29999999702,243214,243264.1,245673.3999999985,245917,2024-07-30T16:21:31.023Z,245992,WXvo7egSFR,incremental,anketa,6645cf40bc81b65c5faccf1d,participant,hcpib7dulz8mfr6x,,,click,,Petar i Mara su jučer otišli u kino pogledati dobru komediju..,Jučer su Petar i Mara otišli u kino pogledati dobru komediju..,gf,35,35,46,,,
,Timer frame,html.Frame,2_8_0,,,,,,,2653.799999998504,243213.3999999985,243214,243264.1,245917.8999999985,245918.59999999404,2024-07-30T16:21:31.025Z,245992,WXvo7egSFR,incremental,anketa,6645cf40bc81b65c5faccf1d,participant,hcpib7dulz8mfr6x,,,,,Petar i Mara su jučer otišli u kino pogledati dobru komediju..,Jučer su Petar i Mara otišli u kino pogledati dobru komediju..,gf,35,35,46,,,
,stimulus,canvas.Screen,2_8_1_0,,,,,,response,7391.19999999553,245920.19999999553,245908.7,245992,253383.19999999553,253600.8999999985,2024-07-30T16:21:38.707Z,253675.7,WXvo7egSFR,incremental,anketa,6645cf40bc81b65c5faccf1d,participant,hcpib7dulz8mfr6x,,7,click @7,,Petar i Mara su jučer otišli u kino pogledati dobru komediju..,Jučer su Petar i Mara otišli u kino pogledati dobru komediju..,gf,35,35,46,,,
,Timer frame,html.Frame,2_8_1,,,,,,,7609.79999999702,245919.19999999553,245908.7,245992,253601.79999999702,253602.29999999702,2024-07-30T16:21:38.708Z,253675.7,WXvo7egSFR,incremental,anketa,6645cf40bc81b65c5faccf1d,participant,hcpib7dulz8mfr6x,,,,,Petar i Mara su jučer otišli u kino pogledati dobru komediju..,Jučer su Petar i Mara otišli u kino pogledati dobru komediju..,gf,35,35,46,,,
,Spremanje,canvas.Screen,2_8_2,,,,,,skipped,,253602.69999999553,,,253601.79999999702,253603.09999999404,2024-07-30T16:21:38.709Z,253675.7,WXvo7egSFR,incremental,anketa,6645cf40bc81b65c5faccf1d,participant,hcpib7dulz8mfr6x,,,,,Petar i Mara su jučer otišli u kino pogledati dobru komediju..,Jučer su Petar i Mara otišli u kino pogledati dobru komediju..,gf,35,35,46,,,
,Question form,html.Form,2_8_3,,,,,,skipped,,253603.5,,,253601.79999999702,253604,2024-07-30T16:21:38.710Z,253675.7,WXvo7egSFR,incremental,anketa,6645cf40bc81b65c5faccf1d,participant,hcpib7dulz8mfr6x,,,,,Petar i Mara su jučer otišli u kino pogledati dobru komediju..,Jučer su Petar i Mara otišli u kino pogledati dobru komediju..,gf,35,35,46,,,
,Answer indication,canvas.Screen,2_8_4,,,,,,skipped,,253610.59999999404,,,253601.79999999702,253610.8999999985,2024-07-30T16:21:38.717Z,253675.7,WXvo7egSFR,incremental,anketa,6645cf40bc81b65c5faccf1d,participant,hcpib7dulz8mfr6x,,,,,Petar i Mara su jučer otišli u kino pogledati dobru komediju..,Jučer su Petar i Mara otišli u kino pogledati dobru komediju..,gf,35,35,46,,,
,inter-stimulus,canvas.Screen,2_8_5,,,,,,response,970.499999995518,253611.09999999404,253600.6,253675.7,254646.19999999553,254837.79999999702,2024-07-30T16:21:39.944Z,254895.4,WXvo7egSFR,incremental,anketa,6645cf40bc81b65c5faccf1d,participant,hcpib7dulz8mfr6x,,,mousedown,,Petar i Mara su jučer otišli u kino pogledati dobru komediju..,Jučer su Petar i Mara otišli u kino pogledati dobru komediju..,gf,35,35,46,,,
,Sequence,flow.Sequence,2_8,,,,,,completion,11382.099999995524,243213.29999999702,243214,243264.1,254646.19999999553,254840.59999999404,2024-07-30T16:21:39.947Z,254895.4,WXvo7egSFR,incremental,anketa,6645cf40bc81b65c5faccf1d,participant,hcpib7dulz8mfr6x,,,,,Petar i Mara su jučer otišli u kino pogledati dobru komediju..,Jučer su Petar i Mara otišli u kino pogledati dobru komediju..,gf,35,35,46,,,
,context,canvas.Screen,2_9_0_0,,,,,,response,3016.600000000006,254842.29999999702,254837.7,254895.4,257912,258116,2024-07-30T16:21:43.222Z,258188.6,WXvo7egSFR,incremental,anketa,6645cf40bc81b65c5faccf1d,participant,hcpib7dulz8mfr6x,,,click,,Što mama hvali kćer koja je u školi dobila?,Mama hvali kćer koja je u školi dobila peticu.,cnp,,,11,,,
,Timer frame,html.Frame,2_9_0,,,,,,,3221.4999999985157,254841.3999999985,254837.7,254895.4,258116.8999999985,258117.29999999702,2024-07-30T16:21:43.223Z,258188.6,WXvo7egSFR,incremental,anketa,6645cf40bc81b65c5faccf1d,participant,hcpib7dulz8mfr6x,,,,,Što mama hvali kćer koja je u školi dobila?,Mama hvali kćer koja je u školi dobila peticu.,cnp,,,11,,,
,stimulus,canvas.Screen,2_9_1_0,,,,,,response,3842.899999999994,258118.59999999404,258113.6,258188.6,262031.5,262229.299999997,2024-07-30T16:21:47.335Z,262300.8,WXvo7egSFR,incremental,anketa,6645cf40bc81b65c5faccf1d,participant,hcpib7dulz8mfr6x,,1,click @1,,Što mama hvali kćer koja je u školi dobila?,Mama hvali kćer koja je u školi dobila peticu.,cnp,,,11,,,
,Timer frame,html.Frame,2_9_1,,,,,,,4041.699999997014,258117.69999999553,258113.6,258188.6,262230.299999997,262231.19999999553,2024-07-30T16:21:47.337Z,262300.8,WXvo7egSFR,incremental,anketa,6645cf40bc81b65c5faccf1d,participant,hcpib7dulz8mfr6x,,,,,Što mama hvali kćer koja je u školi dobila?,Mama hvali kćer koja je u školi dobila peticu.,cnp,,,11,,,
,Spremanje,canvas.Screen,2_9_2,,,,,,skipped,,262232.19999999553,,,262230.299999997,262233.09999999404,2024-07-30T16:21:47.339Z,262300.8,WXvo7egSFR,incremental,anketa,6645cf40bc81b65c5faccf1d,participant,hcpib7dulz8mfr6x,,,,,Što mama hvali kćer koja je u školi dobila?,Mama hvali kćer koja je u školi dobila peticu.,cnp,,,11,,,
,Question form,html.Form,2_9_3,,,,,,skipped,,262233.3999999985,,,262230.299999997,262233.799999997,2024-07-30T16:21:47.340Z,262300.8,WXvo7egSFR,incremental,anketa,6645cf40bc81b65c5faccf1d,participant,hcpib7dulz8mfr6x,,,,,Što mama hvali kćer koja je u školi dobila?,Mama hvali kćer koja je u školi dobila peticu.,cnp,,,11,,,
,Answer indication,canvas.Screen,2_9_4,,,,,,skipped,,262239.5,,,262230.299999997,262240,2024-07-30T16:21:47.346Z,262300.8,WXvo7egSFR,incremental,anketa,6645cf40bc81b65c5faccf1d,participant,hcpib7dulz8mfr6x,,,,,Što mama hvali kćer koja je u školi dobila?,Mama hvali kćer koja je u školi dobila peticu.,cnp,,,11,,,
,inter-stimulus,canvas.Screen,2_9_5,,,,,,response,529.9999999970314,262240.799999997,262225.9,262300.8,262830.799999997,263038.5,2024-07-30T16:21:48.145Z,263092.6,WXvo7egSFR,incremental,anketa,6645cf40bc81b65c5faccf1d,participant,hcpib7dulz8mfr6x,,,mousedown,,Što mama hvali kćer koja je u školi dobila?,Mama hvali kćer koja je u školi dobila peticu.,cnp,,,11,,,
,Sequence,flow.Sequence,2_9,,,,,,completion,7935.399999997026,254841.19999999553,254837.7,254895.4,262830.799999997,263039.299999997,2024-07-30T16:21:48.145Z,263092.6,WXvo7egSFR,incremental,anketa,6645cf40bc81b65c5faccf1d,participant,hcpib7dulz8mfr6x,,,,,Što mama hvali kćer koja je u školi dobila?,Mama hvali kćer koja je u školi dobila peticu.,cnp,,,11,,,
,context,canvas.Screen,2_10_0_0,,,,,,response,2652.699999997043,263040.5,263042.5,263092.6,265745.299999997,265943.799999997,2024-07-30T16:21:51.050Z,266019.4,WXvo7egSFR,incremental,anketa,6645cf40bc81b65c5faccf1d,participant,hcpib7dulz8mfr6x,,,click,,Čega je vidio muzej i obalu?,On je vidio muzej i obalu rijeke.,csi,0,0,1,,,2305
,Timer frame,html.Frame,2_10_0,,,,,,,2851.699999997043,263039.69999999553,263042.5,263092.6,265944.299999997,265944.8999999985,2024-07-30T16:21:51.051Z,266019.4,WXvo7egSFR,incremental,anketa,6645cf40bc81b65c5faccf1d,participant,hcpib7dulz8mfr6x,,,,,Čega je vidio muzej i obalu?,On je vidio muzej i obalu rijeke.,csi,0,0,1,,,2305
,stimulus,canvas.Screen,2_10_1_0,,,,,,response,1895.5999999999767,265945.799999997,265944.3,266019.4,267915,268140,2024-07-30T16:21:53.246Z,268212.7,WXvo7egSFR,incremental,anketa,6645cf40bc81b65c5faccf1d,participant,hcpib7dulz8mfr6x,,1,click @1,,Čega je vidio muzej i obalu?,On je vidio muzej i obalu rijeke.,csi,0,0,1,,,2305
,Timer frame,html.Frame,2_10_1,,,,,,,2121.4999999984866,265945.09999999404,265944.3,266019.4,268140.8999999985,268141.3999999985,2024-07-30T16:21:53.248Z,268212.7,WXvo7egSFR,incremental,anketa,6645cf40bc81b65c5faccf1d,participant,hcpib7dulz8mfr6x,,,,,Čega je vidio muzej i obalu?,On je vidio muzej i obalu rijeke.,csi,0,0,1,,,2305
,Spremanje,canvas.Screen,2_10_2,,,,,,skipped,,268141.8999999985,,,268140.8999999985,268142.299999997,2024-07-30T16:21:53.248Z,268212.7,WXvo7egSFR,incremental,anketa,6645cf40bc81b65c5faccf1d,participant,hcpib7dulz8mfr6x,,,,,Čega je vidio muzej i obalu?,On je vidio muzej i obalu rijeke.,csi,0,0,1,,,2305
,Question form,html.Form,2_10_3,,,,,,skipped,,268142.59999999404,,,268140.8999999985,268143,2024-07-30T16:21:53.249Z,268212.7,WXvo7egSFR,incremental,anketa,6645cf40bc81b65c5faccf1d,participant,hcpib7dulz8mfr6x,,,,,Čega je vidio muzej i obalu?,On je vidio muzej i obalu rijeke.,csi,0,0,1,,,2305
,Answer indication,canvas.Screen,2_10_4,,,,,,skipped,,268148.09999999404,,,268140.8999999985,268148.5,2024-07-30T16:21:53.255Z,268212.7,WXvo7egSFR,incremental,anketa,6645cf40bc81b65c5faccf1d,participant,hcpib7dulz8mfr6x,,,,,Čega je vidio muzej i obalu?,On je vidio muzej i obalu rijeke.,csi,0,0,1,,,2305
,inter-stimulus,canvas.Screen,2_10_5,,,,,,response,558.499999995518,268148.799999997,268129.4,268212.7,268771.19999999553,268970.19999999553,2024-07-30T16:21:54.076Z,269021.1,WXvo7egSFR,incremental,anketa,6645cf40bc81b65c5faccf1d,participant,hcpib7dulz8mfr6x,,,mousedown,,Čega je vidio muzej i obalu?,On je vidio muzej i obalu rijeke.,csi,0,0,1,,,2305
,Sequence,flow.Sequence,2_10,,,,,,completion,5678.599999995553,263039.59999999404,263042.5,263092.6,268771.19999999553,268971,2024-07-30T16:21:54.077Z,269021.1,WXvo7egSFR,incremental,anketa,6645cf40bc81b65c5faccf1d,participant,hcpib7dulz8mfr6x,,,,,Čega je vidio muzej i obalu?,On je vidio muzej i obalu rijeke.,csi,0,0,1,,,2305
,context,canvas.Screen,2_11_0_0,,,,,,response,3040.099999995553,268972,268971.1,269021.1,272061.19999999553,272328.69999999553,2024-07-30T16:21:57.435Z,272400.4,WXvo7egSFR,incremental,anketa,6645cf40bc81b65c5faccf1d,participant,hcpib7dulz8mfr6x,,,click,,Koliko vidim dječaka kojem je ljubazni poštar poklonio bicikla??,Vidim dječaka kojem je ljubazni poštar poklonio dva bicikla..,cnp,38,38,10,,,2305
,Timer frame,html.Frame,2_11_0,,,,,,,3308.099999995553,268971.3999999985,268971.1,269021.1,272329.19999999553,272329.5,2024-07-30T16:21:57.436Z,272400.4,WXvo7egSFR,incremental,anketa,6645cf40bc81b65c5faccf1d,participant,hcpib7dulz8mfr6x,,,,,Koliko vidim dječaka kojem je ljubazni poštar poklonio bicikla??,Vidim dječaka kojem je ljubazni poštar poklonio dva bicikla..,cnp,38,38,10,,,2305
,stimulus,canvas.Screen,2_11_1_0,,,,,,response,9918.999999998487,272330.59999999404,272325.4,272400.4,282319.3999999985,282508.8999999985,2024-07-30T16:22:07.615Z,282578.2,WXvo7egSFR,incremental,anketa,6645cf40bc81b65c5faccf1d,participant,hcpib7dulz8mfr6x,,1,click @1,,Koliko vidim dječaka kojem je ljubazni poštar poklonio bicikla??,Vidim dječaka kojem je ljubazni poštar poklonio dva bicikla..,cnp,38,38,10,,,2305
,Timer frame,html.Frame,2_11_1,,,,,,,10109.399999996996,272329.799999997,272325.4,272400.4,282509.799999997,282510.299999997,2024-07-30T16:22:07.616Z,282578.2,WXvo7egSFR,incremental,anketa,6645cf40bc81b65c5faccf1d,participant,hcpib7dulz8mfr6x,,,,,Koliko vidim dječaka kojem je ljubazni poštar poklonio bicikla??,Vidim dječaka kojem je ljubazni poštar poklonio dva bicikla..,cnp,38,38,10,,,2305
,Spremanje,canvas.Screen,2_11_2,,,,,,skipped,,282510.799999997,,,282509.799999997,282511.299999997,2024-07-30T16:22:07.617Z,282578.2,WXvo7egSFR,incremental,anketa,6645cf40bc81b65c5faccf1d,participant,hcpib7dulz8mfr6x,,,,,Koliko vidim dječaka kojem je ljubazni poštar poklonio bicikla??,Vidim dječaka kojem je ljubazni poštar poklonio dva bicikla..,cnp,38,38,10,,,2305
,Question form,html.Form,2_11_3,,,,,,skipped,,282511.69999999553,,,282509.799999997,282512.19999999553,2024-07-30T16:22:07.618Z,282578.2,WXvo7egSFR,incremental,anketa,6645cf40bc81b65c5faccf1d,participant,hcpib7dulz8mfr6x,,,,,Koliko vidim dječaka kojem je ljubazni poštar poklonio bicikla??,Vidim dječaka kojem je ljubazni poštar poklonio dva bicikla..,cnp,38,38,10,,,2305
,Answer indication,canvas.Screen,2_11_4,,,,,,skipped,,282519.299999997,,,282509.799999997,282519.69999999553,2024-07-30T16:22:07.626Z,282578.2,WXvo7egSFR,incremental,anketa,6645cf40bc81b65c5faccf1d,participant,hcpib7dulz8mfr6x,,,,,Koliko vidim dječaka kojem je ljubazni poštar poklonio bicikla??,Vidim dječaka kojem je ljubazni poštar poklonio dva bicikla..,cnp,38,38,10,,,2305
,inter-stimulus,canvas.Screen,2_11_5,,,,,,response,592.0999999970081,282519.8999999985,282495.8,282578.2,283170.299999997,283374.799999997,2024-07-30T16:22:08.481Z,283428.1,WXvo7egSFR,incremental,anketa,6645cf40bc81b65c5faccf1d,participant,hcpib7dulz8mfr6x,,,mousedown,,Koliko vidim dječaka kojem je ljubazni poštar poklonio bicikla??,Vidim dječaka kojem je ljubazni poštar poklonio dva bicikla..,cnp,38,38,10,,,2305
,Sequence,flow.Sequence,2_11,,,,,,completion,14149.199999997043,268971.19999999553,268971.1,269021.1,283170.299999997,283375.59999999404,2024-07-30T16:22:08.482Z,283428.1,WXvo7egSFR,incremental,anketa,6645cf40bc81b65c5faccf1d,participant,hcpib7dulz8mfr6x,,,,,Koliko vidim dječaka kojem je ljubazni poštar poklonio bicikla??,Vidim dječaka kojem je ljubazni poštar poklonio dva bicikla..,cnp,38,38,10,,,2305
,context,canvas.Screen,2_12_0_0,,,,,,response,4064.099999995553,283376.59999999404,283378.5,283428.1,287492.19999999553,287705.69999999553,2024-07-30T16:22:12.812Z,287775.4,WXvo7egSFR,incremental,anketa,6645cf40bc81b65c5faccf1d,participant,hcpib7dulz8mfr6x,,,click,,Lijepe su samo crne čizme bile u ovom ormaru.,Samo su crne čizme bile lijepe stvari u ovom ormaru.,di,,,34,CRNA; CRNE; CRNI; CRNO; CRN,Boja cipela je?,
,Timer frame,html.Frame,2_12_0,,,,,,,4278.400000000023,283375.8999999985,283378.5,283428.1,287706.5,287707,2024-07-30T16:22:12.813Z,287775.4,WXvo7egSFR,incremental,anketa,6645cf40bc81b65c5faccf1d,participant,hcpib7dulz8mfr6x,,,,,Lijepe su samo crne čizme bile u ovom ormaru.,Samo su crne čizme bile lijepe stvari u ovom ormaru.,di,,,34,CRNA; CRNE; CRNI; CRNO; CRN,Boja cipela je?,
,stimulus,canvas.Screen,2_12_1_0,,,,,,response,3133.8999999969965,287708.19999999553,287709.4,287775.4,290909.299999997,291099.69999999553,2024-07-30T16:22:16.206Z,291150.3,WXvo7egSFR,incremental,anketa,6645cf40bc81b65c5faccf1d,participant,hcpib7dulz8mfr6x,,2,click @2,,Lijepe su samo crne čizme bile u ovom ormaru.,Samo su crne čizme bile lijepe stvari u ovom ormaru.,di,,,34,CRNA; CRNE; CRNI; CRNO; CRN,Boja cipela je?,
,Timer frame,html.Frame,2_12_1,,,,,,,3324.7999999955064,287707.3999999985,287709.4,287775.4,291100.19999999553,291100.8999999985,2024-07-30T16:22:16.207Z,291150.3,WXvo7egSFR,incremental,anketa,6645cf40bc81b65c5faccf1d,participant,hcpib7dulz8mfr6x,,,,,Lijepe su samo crne čizme bile u ovom ormaru.,Samo su crne čizme bile lijepe stvari u ovom ormaru.,di,,,34,CRNA; CRNE; CRNI; CRNO; CRN,Boja cipela je?,
,Spremanje,canvas.Screen,2_12_2,,,,,,response,2055.299999994051,291101.19999999553,291092,291150.3,293205.59999999404,293457.5,2024-07-30T16:22:18.564Z,293467.8,WXvo7egSFR,incremental,anketa,6645cf40bc81b65c5faccf1d,participant,hcpib7dulz8mfr6x,,,mousedown,,Lijepe su samo crne čizme bile u ovom ormaru.,Samo su crne čizme bile lijepe stvari u ovom ormaru.,di,,,34,CRNA; CRNE; CRNI; CRNO; CRN,Boja cipela je?,
,Question form,html.Form,2_12_3,,,,,,form submission,6664.999999997031,293458.09999999404,293459.4,293467.8,300132.799999997,300133.5,2024-07-30T16:22:25.240Z,300201.4,WXvo7egSFR,incremental,anketa,6645cf40bc81b65c5faccf1d,participant,hcpib7dulz8mfr6x,,,,crna,Lijepe su samo crne čizme bile u ovom ormaru.,Samo su crne čizme bile lijepe stvari u ovom ormaru.,di,,,34,CRNA; CRNE; CRNI; CRNO; CRN,Boja cipela je?,
,Answer indication,canvas.Screen,2_12_4,,,,,,response,1047.8999999969965,300135.5,300187.058,300201.4,301249.299999997,301524.69999999553,2024-07-30T16:22:26.631Z,301587,WXvo7egSFR,incremental,anketa,6645cf40bc81b65c5faccf1d,participant,hcpib7dulz8mfr6x,,,mousedown,,Lijepe su samo crne čizme bile u ovom ormaru.,Samo su crne čizme bile lijepe stvari u ovom ormaru.,di,,,34,CRNA; CRNE; CRNI; CRNO; CRN,Boja cipela je?,
,inter-stimulus,canvas.Screen,2_12_5,,,,,,response,809.6999999955297,301525.19999999553,301529.3,301587,302396.69999999553,302616,2024-07-30T16:22:27.722Z,302683.9,WXvo7egSFR,incremental,anketa,6645cf40bc81b65c5faccf1d,participant,hcpib7dulz8mfr6x,,,mousedown,,Lijepe su samo crne čizme bile u ovom ormaru.,Samo su crne čizme bile lijepe stvari u ovom ormaru.,di,,,34,CRNA; CRNE; CRNI; CRNO; CRN,Boja cipela je?,
,Sequence,flow.Sequence,2_12,,,,,,completion,18968.599999995553,283375.799999997,283378.5,283428.1,302396.69999999553,302617.19999999553,2024-07-30T16:22:27.723Z,302683.9,WXvo7egSFR,incremental,anketa,6645cf40bc81b65c5faccf1d,participant,hcpib7dulz8mfr6x,,,,,Lijepe su samo crne čizme bile u ovom ormaru.,Samo su crne čizme bile lijepe stvari u ovom ormaru.,di,,,34,CRNA; CRNE; CRNI; CRNO; CRN,Boja cipela je?,
,context,canvas.Screen,2_13_0_0,,,,,,response,2173.2999999955064,302618.3999999985,302617.9,302683.9,304857.19999999553,305051.09999999404,2024-07-30T16:22:30.157Z,305121.4,WXvo7egSFR,incremental,anketa,6645cf40bc81b65c5faccf1d,participant,hcpib7dulz8mfr6x,,,click,,Večeras je Anna nalakirala nokte.,Anna je večeras nalakirala nokte.,gf,,,49,,,
,Timer frame,html.Frame,2_13_0,,,,,,,2367.7999999955064,302617.69999999553,302617.9,302683.9,305051.69999999553,305053.299999997,2024-07-30T16:22:30.159Z,305121.4,WXvo7egSFR,incremental,anketa,6645cf40bc81b65c5faccf1d,participant,hcpib7dulz8mfr6x,,,,,Večeras je Anna nalakirala nokte.,Anna je večeras nalakirala nokte.,gf,,,49,,,
,stimulus,canvas.Screen,2_13_1_0,,,,,,response,4443.999999998487,305054.299999997,305054.8,305121.4,309565.3999999985,309796.19999999553,2024-07-30T16:22:34.902Z,309866,WXvo7egSFR,incremental,anketa,6645cf40bc81b65c5faccf1d,participant,hcpib7dulz8mfr6x,,7,click @7,,Večeras je Anna nalakirala nokte.,Anna je večeras nalakirala nokte.,gf,,,49,,,
,Timer frame,html.Frame,2_13_1,,,,,,,4675.599999999977,305053.59999999404,305054.8,305121.4,309797,309798.69999999553,2024-07-30T16:22:34.905Z,309866,WXvo7egSFR,incremental,anketa,6645cf40bc81b65c5faccf1d,participant,hcpib7dulz8mfr6x,,,,,Večeras je Anna nalakirala nokte.,Anna je večeras nalakirala nokte.,gf,,,49,,,
,Spremanje,canvas.Screen,2_13_2,,,,,,skipped,,309799,,,309797,309799.299999997,2024-07-30T16:22:34.906Z,309866,WXvo7egSFR,incremental,anketa,6645cf40bc81b65c5faccf1d,participant,hcpib7dulz8mfr6x,,,,,Večeras je Anna nalakirala nokte.,Anna je večeras nalakirala nokte.,gf,,,49,,,
,Question form,html.Form,2_13_3,,,,,,skipped,,309799.799999997,,,309797,309800.19999999553,2024-07-30T16:22:34.906Z,309866,WXvo7egSFR,incremental,anketa,6645cf40bc81b65c5faccf1d,participant,hcpib7dulz8mfr6x,,,,,Večeras je Anna nalakirala nokte.,Anna je večeras nalakirala nokte.,gf,,,49,,,
,Answer indication,canvas.Screen,2_13_4,,,,,,skipped,,309804.09999999404,,,309797,309804.5,2024-07-30T16:22:34.911Z,309866,WXvo7egSFR,incremental,anketa,6645cf40bc81b65c5faccf1d,participant,hcpib7dulz8mfr6x,,,,,Večeras je Anna nalakirala nokte.,Anna je večeras nalakirala nokte.,gf,,,49,,,
,inter-stimulus,canvas.Screen,2_13_5,,,,,,response,779.5,309804.69999999553,309799.4,309866,310645.5,310877.09999999404,2024-07-30T16:22:35.983Z,310941,WXvo7egSFR,incremental,anketa,6645cf40bc81b65c5faccf1d,participant,hcpib7dulz8mfr6x,,,mousedown,,Večeras je Anna nalakirala nokte.,Anna je večeras nalakirala nokte.,gf,,,49,,,
,Sequence,flow.Sequence,2_13,,,,,,completion,7961.599999999977,302617.59999999404,302617.9,302683.9,310645.5,310879,2024-07-30T16:22:35.985Z,310941,WXvo7egSFR,incremental,anketa,6645cf40bc81b65c5faccf1d,participant,hcpib7dulz8mfr6x,,,,,Večeras je Anna nalakirala nokte.,Anna je večeras nalakirala nokte.,gf,,,49,,,
,context,canvas.Screen,2_14_0_0,,,,,,response,3677.89999999851,310881.19999999553,310874.3,310941,314618.8999999985,314849.09999999404,2024-07-30T16:22:39.955Z,314930.6,WXvo7egSFR,incremental,anketa,6645cf40bc81b65c5faccf1d,participant,hcpib7dulz8mfr6x,,,click,,Za koliko novca nevjerojatno je da je Goran prodao svoj stan??,Ono da je Goran prodao svoj stan za toliki novac nevjerojatno je..,si,31,32,18,,,
,Timer frame,html.Frame,2_14_0,,,,,,,3909.1999999955297,310880.19999999553,310874.3,310941,314850.19999999553,314850.799999997,2024-07-30T16:22:39.957Z,314930.6,WXvo7egSFR,incremental,anketa,6645cf40bc81b65c5faccf1d,participant,hcpib7dulz8mfr6x,,,,,Za koliko novca nevjerojatno je da je Goran prodao svoj stan??,Ono da je Goran prodao svoj stan za toliki novac nevjerojatno je..,si,31,32,18,,,
,stimulus,canvas.Screen,2_14_1_0,,,,,,response,4460.599999995553,314852.8999999985,314848.2,314930.6,319391.19999999553,319594.8999999985,2024-07-30T16:22:44.701Z,319656.8,WXvo7egSFR,incremental,anketa,6645cf40bc81b65c5faccf1d,participant,hcpib7dulz8mfr6x,,1,click @1,,Za koliko novca nevjerojatno je da je Goran prodao svoj stan??,Ono da je Goran prodao svoj stan za toliki novac nevjerojatno je..,si,31,32,18,,,
,Timer frame,html.Frame,2_14_1,,,,,,,4664.799999998533,314851.299999997,314848.2,314930.6,319595.3999999985,319595.69999999553,2024-07-30T16:22:44.702Z,319656.8,WXvo7egSFR,incremental,anketa,6645cf40bc81b65c5faccf1d,participant,hcpib7dulz8mfr6x,,,,,Za koliko novca nevjerojatno je da je Goran prodao svoj stan??,Ono da je Goran prodao svoj stan za toliki novac nevjerojatno je..,si,31,32,18,,,
,Spremanje,canvas.Screen,2_14_2,,,,,,skipped,,319596,,,319595.3999999985,319596.19999999553,2024-07-30T16:22:44.702Z,319656.8,WXvo7egSFR,incremental,anketa,6645cf40bc81b65c5faccf1d,participant,hcpib7dulz8mfr6x,,,,,Za koliko novca nevjerojatno je da je Goran prodao svoj stan??,Ono da je Goran prodao svoj stan za toliki novac nevjerojatno je..,si,31,32,18,,,
,Question form,html.Form,2_14_3,,,,,,skipped,,319596.5,,,319595.3999999985,319596.799999997,2024-07-30T16:22:44.703Z,319656.8,WXvo7egSFR,incremental,anketa,6645cf40bc81b65c5faccf1d,participant,hcpib7dulz8mfr6x,,,,,Za koliko novca nevjerojatno je da je Goran prodao svoj stan??,Ono da je Goran prodao svoj stan za toliki novac nevjerojatno je..,si,31,32,18,,,
,Answer indication,canvas.Screen,2_14_4,,,,,,skipped,,319600,,,319595.3999999985,319600.299999997,2024-07-30T16:22:44.707Z,319656.8,WXvo7egSFR,incremental,anketa,6645cf40bc81b65c5faccf1d,participant,hcpib7dulz8mfr6x,,,,,Za koliko novca nevjerojatno je da je Goran prodao svoj stan??,Ono da je Goran prodao svoj stan za toliki novac nevjerojatno je..,si,31,32,18,,,
,inter-stimulus,canvas.Screen,2_14_5,,,,,,response,625.7999999940512,319600.69999999553,319598.5,319656.8,320282.59999999404,320515.3999999985,2024-07-30T16:22:45.622Z,320581.8,WXvo7egSFR,incremental,anketa,6645cf40bc81b65c5faccf1d,participant,hcpib7dulz8mfr6x,,,mousedown,,Za koliko novca nevjerojatno je da je Goran prodao svoj stan??,Ono da je Goran prodao svoj stan za toliki novac nevjerojatno je..,si,31,32,18,,,
,Sequence,flow.Sequence,2_14,,,,,,completion,9341.59999999404,310879.69999999553,310874.3,310941,320282.59999999404,320517.3999999985,2024-07-30T16:22:45.624Z,320581.8,WXvo7egSFR,incremental,anketa,6645cf40bc81b65c5faccf1d,participant,hcpib7dulz8mfr6x,,,,,Za koliko novca nevjerojatno je da je Goran prodao svoj stan??,Ono da je Goran prodao svoj stan za toliki novac nevjerojatno je..,si,31,32,18,,,
,context,canvas.Screen,2_15_0_0,,,,,,response,2966.4999999970314,320519.5,320515.1,320581.8,323548.299999997,323753.3999999985,2024-07-30T16:22:48.860Z,323823.4,WXvo7egSFR,incremental,anketa,6645cf40bc81b65c5faccf1d,participant,hcpib7dulz8mfr6x,,,click,,Što je kupio i majicu?,On je kupio tenisice I majicu.,csi,0,0,0,,,2305
,Timer frame,html.Frame,2_15_0,,,,,,,3172.0999999985215,320518.3999999985,320515.1,320581.8,323753.8999999985,323754.19999999553,2024-07-30T16:22:48.860Z,323823.4,WXvo7egSFR,incremental,anketa,6645cf40bc81b65c5faccf1d,participant,hcpib7dulz8mfr6x,,,,,Što je kupio i majicu?,On je kupio tenisice I majicu.,csi,0,0,0,,,2305
,stimulus,canvas.Screen,2_15_1_0,,,,,,response,2164.0999999999767,323755.19999999553,323757.5,323823.4,325987.5,326206.09999999404,2024-07-30T16:22:51.312Z,326271.9,WXvo7egSFR,incremental,anketa,6645cf40bc81b65c5faccf1d,participant,hcpib7dulz8mfr6x,,1,click @1,,Što je kupio i majicu?,On je kupio tenisice I majicu.,csi,0,0,0,,,2305
,Timer frame,html.Frame,2_15_1,,,,,,,2383.2999999955064,323754.5,323757.5,323823.4,326206.69999999553,326207,2024-07-30T16:22:51.313Z,326271.9,WXvo7egSFR,incremental,anketa,6645cf40bc81b65c5faccf1d,participant,hcpib7dulz8mfr6x,,,,,Što je kupio i majicu?,On je kupio tenisice I majicu.,csi,0,0,0,,,2305
,Spremanje,canvas.Screen,2_15_2,,,,,,skipped,,326207.19999999553,,,326206.69999999553,326207.5,2024-07-30T16:22:51.314Z,326271.9,WXvo7egSFR,incremental,anketa,6645cf40bc81b65c5faccf1d,participant,hcpib7dulz8mfr6x,,,,,Što je kupio i majicu?,On je kupio tenisice I majicu.,csi,0,0,0,,,2305
,Question form,html.Form,2_15_3,,,,,,skipped,,326207.69999999553,,,326206.69999999553,326208,2024-07-30T16:22:51.314Z,326271.9,WXvo7egSFR,incremental,anketa,6645cf40bc81b65c5faccf1d,participant,hcpib7dulz8mfr6x,,,,,Što je kupio i majicu?,On je kupio tenisice I majicu.,csi,0,0,0,,,2305
,Answer indication,canvas.Screen,2_15_4,,,,,,skipped,,326211.8999999985,,,326206.69999999553,326212.19999999553,2024-07-30T16:22:51.318Z,326271.9,WXvo7egSFR,incremental,anketa,6645cf40bc81b65c5faccf1d,participant,hcpib7dulz8mfr6x,,,,,Što je kupio i majicu?,On je kupio tenisice I majicu.,csi,0,0,0,,,2305
,inter-stimulus,canvas.Screen,2_15_5,,,,,,response,540.5999999999767,326212.3999999985,326206,326271.9,326812.5,327012.799999997,2024-07-30T16:22:52.119Z,327071.6,WXvo7egSFR,incremental,anketa,6645cf40bc81b65c5faccf1d,participant,hcpib7dulz8mfr6x,,,mousedown,,Što je kupio i majicu?,On je kupio tenisice I majicu.,csi,0,0,0,,,2305
,Sequence,flow.Sequence,2_15,,,,,,completion,6230.700000000012,320518.09999999404,320515.1,320581.8,326812.5,327013.59999999404,2024-07-30T16:22:52.120Z,327071.6,WXvo7egSFR,incremental,anketa,6645cf40bc81b65c5faccf1d,participant,hcpib7dulz8mfr6x,,,,,Što je kupio i majicu?,On je kupio tenisice I majicu.,csi,0,0,0,,,2305
,context,canvas.Screen,2_16_0_0,,,,,,response,3047.9000000000233,327014.59999999404,327013.9,327071.6,330119.5,330315.8999999985,2024-07-30T16:22:55.422Z,330402.1,WXvo7egSFR,incremental,anketa,6645cf40bc81b65c5faccf1d,participant,hcpib7dulz8mfr6x,,,click,,"To su oni siromasi, koje je htio nahraniti i moliti se bogu..",Hoće nahraniti siromahe i moliti se bogu.,csi,42,0,6,,,
,Timer frame,html.Frame,2_16_0,,,,,,,3246.299999998533,327014,327013.9,327071.6,330317.8999999985,330319.09999999404,2024-07-30T16:22:55.425Z,330402.1,WXvo7egSFR,incremental,anketa,6645cf40bc81b65c5faccf1d,participant,hcpib7dulz8mfr6x,,,,,"To su oni siromasi, koje je htio nahraniti i moliti se bogu..",Hoće nahraniti siromahe i moliti se bogu.,csi,42,0,6,,,
,stimulus,canvas.Screen,2_16_1_0,,,,,,timeout,11088.100000000035,330321.19999999553,330318.8,330402.1,341390.2,341396.59999999404,2024-07-30T16:23:06.503Z,341490.2,WXvo7egSFR,incremental,anketa,6645cf40bc81b65c5faccf1d,participant,hcpib7dulz8mfr6x,,,,,"To su oni siromasi, koje je htio nahraniti i moliti se bogu..",Hoće nahraniti siromahe i moliti se bogu.,csi,42,0,6,,,
,Timer frame,html.Frame,2_16_1,,,,,,,10995.400000000023,330319.799999997,330318.8,330402.1,341397.5,341398.19999999553,2024-07-30T16:23:06.504Z,341606,WXvo7egSFR,incremental,anketa,6645cf40bc81b65c5faccf1d,participant,hcpib7dulz8mfr6x,,,,,"To su oni siromasi, koje je htio nahraniti i moliti se bogu..",Hoće nahraniti siromahe i moliti se bogu.,csi,42,0,6,,,
,Spremanje,canvas.Screen,2_16_2,,,,,,skipped,,341399,,,341397.5,341399.59999999404,2024-07-30T16:23:06.506Z,341606,WXvo7egSFR,incremental,anketa,6645cf40bc81b65c5faccf1d,participant,hcpib7dulz8mfr6x,,,,,"To su oni siromasi, koje je htio nahraniti i moliti se bogu..",Hoće nahraniti siromahe i moliti se bogu.,csi,42,0,6,,,
,Question form,html.Form,2_16_3,,,,,,skipped,,341400.799999997,,,341397.5,341401.3999999985,2024-07-30T16:23:06.508Z,341606,WXvo7egSFR,incremental,anketa,6645cf40bc81b65c5faccf1d,participant,hcpib7dulz8mfr6x,,,,,"To su oni siromasi, koje je htio nahraniti i moliti se bogu..",Hoće nahraniti siromahe i moliti se bogu.,csi,42,0,6,,,
,Answer indication,canvas.Screen,2_16_4,,,,,,skipped,,341407.59999999404,,,341397.5,341408.09999999404,2024-07-30T16:23:06.514Z,341606,WXvo7egSFR,incremental,anketa,6645cf40bc81b65c5faccf1d,participant,hcpib7dulz8mfr6x,,,,,"To su oni siromasi, koje je htio nahraniti i moliti se bogu..",Hoće nahraniti siromahe i moliti se bogu.,csi,42,0,6,,,
,inter-stimulus,canvas.Screen,2_16_5,,,,,,response,1954.5999999940395,341410.09999999404,341490.2,341606,343560.59999999404,343786.299999997,2024-07-30T16:23:08.892Z,343843.4,WXvo7egSFR,incremental,anketa,6645cf40bc81b65c5faccf1d,participant,hcpib7dulz8mfr6x,,,mousedown,,"To su oni siromasi, koje je htio nahraniti i moliti se bogu..",Hoće nahraniti siromahe i moliti se bogu.,csi,42,0,6,,,
,Sequence,flow.Sequence,2_16,,,,,,completion,16488.999999994063,327013.799999997,327013.9,327071.6,343560.59999999404,343787.299999997,2024-07-30T16:23:08.893Z,343843.4,WXvo7egSFR,incremental,anketa,6645cf40bc81b65c5faccf1d,participant,hcpib7dulz8mfr6x,,,,,"To su oni siromasi, koje je htio nahraniti i moliti se bogu..",Hoće nahraniti siromahe i moliti se bogu.,csi,42,0,6,,,
,context,canvas.Screen,2_17_0_0,,,,,,response,2225.6999999940163,343788.19999999553,343793.3,343843.4,346069.09999999404,346311.19999999553,2024-07-30T16:23:11.417Z,346391.1,WXvo7egSFR,incremental,anketa,6645cf40bc81b65c5faccf1d,participant,hcpib7dulz8mfr6x,,,click,,Kad je Lena pronašla honorarni posao?,Lena je pronašla honorarni posao ubrzo nakon praznika..,gf,,32,51,,,
,Timer frame,html.Frame,2_17_0,,,,,,,2469.3999999969965,343787.59999999404,343793.3,343843.4,346312.799999997,346313.3999999985,2024-07-30T16:23:11.419Z,346391.1,WXvo7egSFR,incremental,anketa,6645cf40bc81b65c5faccf1d,participant,hcpib7dulz8mfr6x,,,,,Kad je Lena pronašla honorarni posao?,Lena je pronašla honorarni posao ubrzo nakon praznika..,gf,,32,51,,,
,stimulus,canvas.Screen,2_17_1_0,,,,,,response,3650.499999994063,346314.799999997,346307.8,346391.1,350041.59999999404,350263.09999999404,2024-07-30T16:23:15.369Z,350351.4,WXvo7egSFR,incremental,anketa,6645cf40bc81b65c5faccf1d,participant,hcpib7dulz8mfr6x,,7,click @7,,Kad je Lena pronašla honorarni posao?,Lena je pronašla honorarni posao ubrzo nakon praznika..,gf,,32,51,,,
,Timer frame,html.Frame,2_17_1,,,,,,,3872.9000000000233,346313.799999997,346307.8,346391.1,350264,350264.69999999553,2024-07-30T16:23:15.371Z,350351.4,WXvo7egSFR,incremental,anketa,6645cf40bc81b65c5faccf1d,participant,hcpib7dulz8mfr6x,,,,,Kad je Lena pronašla honorarni posao?,Lena je pronašla honorarni posao ubrzo nakon praznika..,gf,,32,51,,,
,Spremanje,canvas.Screen,2_17_2,,,,,,skipped,,350265.09999999404,,,350264,350265.3999999985,2024-07-30T16:23:15.372Z,350351.4,WXvo7egSFR,incremental,anketa,6645cf40bc81b65c5faccf1d,participant,hcpib7dulz8mfr6x,,,,,Kad je Lena pronašla honorarni posao?,Lena je pronašla honorarni posao ubrzo nakon praznika..,gf,,32,51,,,
,Question form,html.Form,2_17_3,,,,,,skipped,,350265.799999997,,,350264,350266.09999999404,2024-07-30T16:23:15.372Z,350351.4,WXvo7egSFR,incremental,anketa,6645cf40bc81b65c5faccf1d,participant,hcpib7dulz8mfr6x,,,,,Kad je Lena pronašla honorarni posao?,Lena je pronašla honorarni posao ubrzo nakon praznika..,gf,,32,51,,,
,Answer indication,canvas.Screen,2_17_4,,,,,,skipped,,350272.09999999404,,,350264,350274,2024-07-30T16:23:15.380Z,350351.4,WXvo7egSFR,incremental,anketa,6645cf40bc81b65c5faccf1d,participant,hcpib7dulz8mfr6x,,,,,Kad je Lena pronašla honorarni posao?,Lena je pronašla honorarni posao ubrzo nakon praznika..,gf,,32,51,,,
,inter-stimulus,canvas.Screen,2_17_5,,,,,,response,1093.5999999999767,350274.3999999985,350260.7,350351.4,351445,351656,2024-07-30T16:23:16.762Z,351719.8,WXvo7egSFR,incremental,anketa,6645cf40bc81b65c5faccf1d,participant,hcpib7dulz8mfr6x,,,mousedown,,Kad je Lena pronašla honorarni posao?,Lena je pronašla honorarni posao ubrzo nakon praznika..,gf,,32,51,,,
,Sequence,flow.Sequence,2_17,,,,,,completion,7601.599999999977,343787.59999999404,343793.3,343843.4,351445,351657.799999997,2024-07-30T16:23:16.764Z,351719.8,WXvo7egSFR,incremental,anketa,6645cf40bc81b65c5faccf1d,participant,hcpib7dulz8mfr6x,,,,,Kad je Lena pronašla honorarni posao?,Lena je pronašla honorarni posao ubrzo nakon praznika..,gf,,32,51,,,
,context,canvas.Screen,2_18_0_0,,,,,,response,4044.2000000000116,351659.19999999553,351653.9,351719.8,355764,355998.3999999985,2024-07-30T16:23:21.104Z,356055.6,WXvo7egSFR,incremental,anketa,6645cf40bc81b65c5faccf1d,participant,hcpib7dulz8mfr6x,,,click,,Sanjam dvorac iz kojeg se čuje glasan plač daleko..,Sanjam dvorac daleko iz kojeg se čuje glasan plač..,ai,30,37,26,,,
,Timer frame,html.Frame,2_18_0,,,,,,,4278.999999997031,351658.299999997,351653.9,351719.8,355998.799999997,355999.19999999553,2024-07-30T16:23:21.105Z,356055.6,WXvo7egSFR,incremental,anketa,6645cf40bc81b65c5faccf1d,participant,hcpib7dulz8mfr6x,,,,,Sanjam dvorac iz kojeg se čuje glasan plač daleko..,Sanjam dvorac daleko iz kojeg se čuje glasan plač..,ai,30,37,26,,,
,stimulus,canvas.Screen,2_18_1_0,,,,,,response,3511.999999994063,356000.299999997,355998,356055.6,359567.59999999404,359735.69999999553,2024-07-30T16:23:24.842Z,359833,WXvo7egSFR,incremental,anketa,6645cf40bc81b65c5faccf1d,participant,hcpib7dulz8mfr6x,,1,click @1,,Sanjam dvorac iz kojeg se čuje glasan plač daleko..,Sanjam dvorac daleko iz kojeg se čuje glasan plač..,ai,30,37,26,,,
,Timer frame,html.Frame,2_18_1,,,,,,,3680.499999994063,355999.5,355998,356055.6,359736.09999999404,359736.69999999553,2024-07-30T16:23:24.843Z,359833,WXvo7egSFR,incremental,anketa,6645cf40bc81b65c5faccf1d,participant,hcpib7dulz8mfr6x,,,,,Sanjam dvorac iz kojeg se čuje glasan plač daleko..,Sanjam dvorac daleko iz kojeg se čuje glasan plač..,ai,30,37,26,,,
,Spremanje,canvas.Screen,2_18_2,,,,,,skipped,,359737,,,359736.09999999404,359737.299999997,2024-07-30T16:23:24.843Z,359833,WXvo7egSFR,incremental,anketa,6645cf40bc81b65c5faccf1d,participant,hcpib7dulz8mfr6x,,,,,Sanjam dvorac iz kojeg se čuje glasan plač daleko..,Sanjam dvorac daleko iz kojeg se čuje glasan plač..,ai,30,37,26,,,
,Question form,html.Form,2_18_3,,,,,,skipped,,359737.3999999985,,,359736.09999999404,359737.59999999404,2024-07-30T16:23:24.844Z,359833,WXvo7egSFR,incremental,anketa,6645cf40bc81b65c5faccf1d,participant,hcpib7dulz8mfr6x,,,,,Sanjam dvorac iz kojeg se čuje glasan plač daleko..,Sanjam dvorac daleko iz kojeg se čuje glasan plač..,ai,30,37,26,,,
,Answer indication,canvas.Screen,2_18_4,,,,,,skipped,,359741.19999999553,,,359736.09999999404,359741.59999999404,2024-07-30T16:23:24.848Z,359833,WXvo7egSFR,incremental,anketa,6645cf40bc81b65c5faccf1d,participant,hcpib7dulz8mfr6x,,,,,Sanjam dvorac iz kojeg se čuje glasan plač daleko..,Sanjam dvorac daleko iz kojeg se čuje glasan plač..,ai,30,37,26,,,
,inter-stimulus,canvas.Screen,2_18_5,,,,,,response,512.5,359741.799999997,359741.3,359833,360345.5,360542.09999999404,2024-07-30T16:23:25.648Z,360589.9,WXvo7egSFR,incremental,anketa,6645cf40bc81b65c5faccf1d,participant,hcpib7dulz8mfr6x,,,mousedown,,Sanjam dvorac iz kojeg se čuje glasan plač daleko..,Sanjam dvorac daleko iz kojeg se čuje glasan plač..,ai,30,37,26,,,
,Sequence,flow.Sequence,2_18,,,,,,completion,8625.700000000012,351658.09999999404,351653.9,351719.8,360345.5,360542.8999999985,2024-07-30T16:23:25.649Z,360589.9,WXvo7egSFR,incremental,anketa,6645cf40bc81b65c5faccf1d,participant,hcpib7dulz8mfr6x,,,,,Sanjam dvorac iz kojeg se čuje glasan plač daleko..,Sanjam dvorac daleko iz kojeg se čuje glasan plač..,ai,30,37,26,,,
,context,canvas.Screen,2_19_0_0,,,,,,response,868.1999999940163,360543.799999997,360548.7,360589.9,361458.09999999404,361677.19999999553,2024-07-30T16:23:26.783Z,361753.1,WXvo7egSFR,incremental,anketa,6645cf40bc81b65c5faccf1d,participant,hcpib7dulz8mfr6x,,,click,,"Što je on plakao, čitajući?","On je plakao, čitajući knjigu.",ai,,,22,,,
,Timer frame,html.Frame,2_19_0,,,,,,,1087.8999999969965,360543.19999999553,360548.7,360589.9,361677.799999997,361678.09999999404,2024-07-30T16:23:26.784Z,361753.1,WXvo7egSFR,incremental,anketa,6645cf40bc81b65c5faccf1d,participant,hcpib7dulz8mfr6x,,,,,"Što je on plakao, čitajući?","On je plakao, čitajući knjigu.",ai,,,22,,,
,stimulus,canvas.Screen,2_19_1_0,,,,,,response,2978.9000000000233,361679.09999999404,361678.9,361753.1,364732,364960.69999999553,2024-07-30T16:23:30.067Z,365029.8,WXvo7egSFR,incremental,anketa,6645cf40bc81b65c5faccf1d,participant,hcpib7dulz8mfr6x,,1,click @1,,"Što je on plakao, čitajući?","On je plakao, čitajući knjigu.",ai,,,22,,,
,Timer frame,html.Frame,2_19_1,,,,,,,3207.999999994063,361678.299999997,361678.9,361753.1,364961.09999999404,364961.3999999985,2024-07-30T16:23:30.067Z,365029.8,WXvo7egSFR,incremental,anketa,6645cf40bc81b65c5faccf1d,participant,hcpib7dulz8mfr6x,,,,,"Što je on plakao, čitajući?","On je plakao, čitajući knjigu.",ai,,,22,,,
,Spremanje,canvas.Screen,2_19_2,,,,,,skipped,,364961.69999999553,,,364961.09999999404,364961.799999997,2024-07-30T16:23:30.068Z,365029.8,WXvo7egSFR,incremental,anketa,6645cf40bc81b65c5faccf1d,participant,hcpib7dulz8mfr6x,,,,,"Što je on plakao, čitajući?","On je plakao, čitajući knjigu.",ai,,,22,,,
,Question form,html.Form,2_19_3,,,,,,skipped,,364962,,,364961.09999999404,364962.19999999553,2024-07-30T16:23:30.068Z,365029.8,WXvo7egSFR,incremental,anketa,6645cf40bc81b65c5faccf1d,participant,hcpib7dulz8mfr6x,,,,,"Što je on plakao, čitajući?","On je plakao, čitajući knjigu.",ai,,,22,,,
,Answer indication,canvas.Screen,2_19_4,,,,,,skipped,,364964.8999999985,,,364961.09999999404,364965.19999999553,2024-07-30T16:23:30.071Z,365029.8,WXvo7egSFR,incremental,anketa,6645cf40bc81b65c5faccf1d,participant,hcpib7dulz8mfr6x,,,,,"Što je on plakao, čitajući?","On je plakao, čitajući knjigu.",ai,,,22,,,
,inter-stimulus,canvas.Screen,2_19_5,,,,,,response,604.7999999940512,364965.3999999985,364963.2,365029.8,365634.59999999404,365861,2024-07-30T16:23:30.967Z,365921.5,WXvo7egSFR,incremental,anketa,6645cf40bc81b65c5faccf1d,participant,hcpib7dulz8mfr6x,,,mousedown,,"Što je on plakao, čitajući?","On je plakao, čitajući knjigu.",ai,,,22,,,
,Sequence,flow.Sequence,2_19,,,,,,completion,5044.699999994016,360543.09999999404,360548.7,360589.9,365634.59999999404,365861.799999997,2024-07-30T16:23:30.968Z,365921.5,WXvo7egSFR,incremental,anketa,6645cf40bc81b65c5faccf1d,participant,hcpib7dulz8mfr6x,,,,,"Što je on plakao, čitajući?","On je plakao, čitajući knjigu.",ai,,,22,,,
,context,canvas.Screen,2_20_0_0,,,,,,response,1099.5,365862.69999999553,365863.2,365921.5,367021,367243,2024-07-30T16:23:32.349Z,367318.5,WXvo7egSFR,incremental,anketa,6645cf40bc81b65c5faccf1d,participant,hcpib7dulz8mfr6x,,,click,,Čega je riješio taj misterij?,Riješio je taj misterij nestanka psa.,di,,,32,,,
,Timer frame,html.Frame,2_20_0,,,,,,,1322,365862.09999999404,365863.2,365921.5,367243.5,367243.8999999985,2024-07-30T16:23:32.350Z,367318.5,WXvo7egSFR,incremental,anketa,6645cf40bc81b65c5faccf1d,participant,hcpib7dulz8mfr6x,,,,,Čega je riješio taj misterij?,Riješio je taj misterij nestanka psa.,di,,,32,,,
,stimulus,canvas.Screen,2_20_1_0,,,,,,response,1619.6999999955297,367245.299999997,367235.9,367318.5,368938.19999999553,369200.59999999404,2024-07-30T16:23:34.307Z,369268.9,WXvo7egSFR,incremental,anketa,6645cf40bc81b65c5faccf1d,participant,hcpib7dulz8mfr6x,,1,click @1,,Čega je riješio taj misterij?,Riješio je taj misterij nestanka psa.,di,,,32,,,
,Timer frame,html.Frame,2_20_1,,,,,,,1882.8999999985099,367244.19999999553,367235.9,367318.5,369201.3999999985,369201.8999999985,2024-07-30T16:23:34.308Z,369268.9,WXvo7egSFR,incremental,anketa,6645cf40bc81b65c5faccf1d,participant,hcpib7dulz8mfr6x,,,,,Čega je riješio taj misterij?,Riješio je taj misterij nestanka psa.,di,,,32,,,
,Spremanje,canvas.Screen,2_20_2,,,,,,skipped,,369202.5,,,369201.3999999985,369202.8999999985,2024-07-30T16:23:34.309Z,369268.9,WXvo7egSFR,incremental,anketa,6645cf40bc81b65c5faccf1d,participant,hcpib7dulz8mfr6x,,,,,Čega je riješio taj misterij?,Riješio je taj misterij nestanka psa.,di,,,32,,,
,Question form,html.Form,2_20_3,,,,,,skipped,,369203.299999997,,,369201.3999999985,369203.799999997,2024-07-30T16:23:34.310Z,369268.9,WXvo7egSFR,incremental,anketa,6645cf40bc81b65c5faccf1d,participant,hcpib7dulz8mfr6x,,,,,Čega je riješio taj misterij?,Riješio je taj misterij nestanka psa.,di,,,32,,,
,Answer indication,canvas.Screen,2_20_4,,,,,,skipped,,369209.09999999404,,,369201.3999999985,369209.3999999985,2024-07-30T16:23:34.315Z,369268.9,WXvo7egSFR,incremental,anketa,6645cf40bc81b65c5faccf1d,participant,hcpib7dulz8mfr6x,,,,,Čega je riješio taj misterij?,Riješio je taj misterij nestanka psa.,di,,,32,,,
,inter-stimulus,canvas.Screen,2_20_5,,,,,,response,561.9999999984866,369209.5,369202.3,369268.9,369830.8999999985,370041.5,2024-07-30T16:23:35.148Z,370118.9,WXvo7egSFR,incremental,anketa,6645cf40bc81b65c5faccf1d,participant,hcpib7dulz8mfr6x,,,mousedown,,Čega je riješio taj misterij?,Riješio je taj misterij nestanka psa.,di,,,32,,,
,Sequence,flow.Sequence,2_20,,,,,,completion,3909.39999999851,365862.09999999404,365863.2,365921.5,369830.8999999985,370043.5,2024-07-30T16:23:35.150Z,370118.9,WXvo7egSFR,incremental,anketa,6645cf40bc81b65c5faccf1d,participant,hcpib7dulz8mfr6x,,,,,Čega je riješio taj misterij?,Riješio je taj misterij nestanka psa.,di,,,32,,,
,context,canvas.Screen,2_21_0_0,,,,,,response,1726.7999999955064,370045.8999999985,370043.9,370118.9,371845.69999999553,372078.69999999553,2024-07-30T16:23:37.185Z,372142.3,WXvo7egSFR,incremental,anketa,6645cf40bc81b65c5faccf1d,participant,hcpib7dulz8mfr6x,,,click,,Vidimo plažu daleko od koje smo bili.,Vidimo plažu od koje smo bili daleko.,ai,,,24,,,
,Timer frame,html.Frame,2_21_0,,,,,,,1960.3999999969965,370044.799999997,370043.9,370118.9,372079.299999997,372079.69999999553,2024-07-30T16:23:37.186Z,372142.3,WXvo7egSFR,incremental,anketa,6645cf40bc81b65c5faccf1d,participant,hcpib7dulz8mfr6x,,,,,Vidimo plažu daleko od koje smo bili.,Vidimo plažu od koje smo bili daleko.,ai,,,24,,,
,stimulus,canvas.Screen,2_21_1_0,,,,,,response,2244.9999999970314,372080.8999999985,372076.4,372142.3,374387.299999997,374604.19999999553,2024-07-30T16:23:39.710Z,374681.6,WXvo7egSFR,incremental,anketa,6645cf40bc81b65c5faccf1d,participant,hcpib7dulz8mfr6x,,1,click @1,,Vidimo plažu daleko od koje smo bili.,Vidimo plažu od koje smo bili daleko.,ai,,,24,,,
,Timer frame,html.Frame,2_21_1,,,,,,,2463.2000000000116,372080,372076.4,372142.3,374605.5,374606.19999999553,2024-07-30T16:23:39.712Z,374681.6,WXvo7egSFR,incremental,anketa,6645cf40bc81b65c5faccf1d,participant,hcpib7dulz8mfr6x,,,,,Vidimo plažu daleko od koje smo bili.,Vidimo plažu od koje smo bili daleko.,ai,,,24,,,
,Spremanje,canvas.Screen,2_21_2,,,,,,skipped,,374606.799999997,,,374605.5,374607.3999999985,2024-07-30T16:23:39.713Z,374681.6,WXvo7egSFR,incremental,anketa,6645cf40bc81b65c5faccf1d,participant,hcpib7dulz8mfr6x,,,,,Vidimo plažu daleko od koje smo bili.,Vidimo plažu od koje smo bili daleko.,ai,,,24,,,
,Question form,html.Form,2_21_3,,,,,,skipped,,374608.59999999404,,,374605.5,374609.19999999553,2024-07-30T16:23:39.715Z,374681.6,WXvo7egSFR,incremental,anketa,6645cf40bc81b65c5faccf1d,participant,hcpib7dulz8mfr6x,,,,,Vidimo plažu daleko od koje smo bili.,Vidimo plažu od koje smo bili daleko.,ai,,,24,,,
,Answer indication,canvas.Screen,2_21_4,,,,,,skipped,,374614.299999997,,,374605.5,374614.799999997,2024-07-30T16:23:39.721Z,374681.6,WXvo7egSFR,incremental,anketa,6645cf40bc81b65c5faccf1d,participant,hcpib7dulz8mfr6x,,,,,Vidimo plažu daleko od koje smo bili.,Vidimo plažu od koje smo bili daleko.,ai,,,24,,,
,inter-stimulus,canvas.Screen,2_21_5,,,,,,response,516.4999999940628,374615.19999999553,374599.1,374681.6,375198.09999999404,375414.8999999985,2024-07-30T16:23:40.521Z,375473.1,WXvo7egSFR,incremental,anketa,6645cf40bc81b65c5faccf1d,participant,hcpib7dulz8mfr6x,,,mousedown,,Vidimo plažu daleko od koje smo bili.,Vidimo plažu od koje smo bili daleko.,ai,,,24,,,
,Sequence,flow.Sequence,2_21,,,,,,completion,5079.199999994016,370044.19999999553,370043.9,370118.9,375198.09999999404,375415.5,2024-07-30T16:23:40.522Z,375473.1,WXvo7egSFR,incremental,anketa,6645cf40bc81b65c5faccf1d,participant,hcpib7dulz8mfr6x,,,,,Vidimo plažu daleko od koje smo bili.,Vidimo plažu od koje smo bili daleko.,ai,,,24,,,
,context,canvas.Screen,2_22_0_0,,,,,,response,993.7999999985332,375416.3999999985,375415.4,375473.1,376466.8999999985,376636.69999999553,2024-07-30T16:23:41.743Z,376702.6,WXvo7egSFR,incremental,anketa,6645cf40bc81b65c5faccf1d,participant,hcpib7dulz8mfr6x,,,click,,Čega si gledao prepričavanje?,Gledao si prepričavanje filma.,di,,,31,,,
,Timer frame,html.Frame,2_22_0,,,,,,,1164.099999995553,375415.799999997,375415.4,375473.1,376637.19999999553,376637.59999999404,2024-07-30T16:23:41.744Z,376702.6,WXvo7egSFR,incremental,anketa,6645cf40bc81b65c5faccf1d,participant,hcpib7dulz8mfr6x,,,,,Čega si gledao prepričavanje?,Gledao si prepričavanje filma.,di,,,31,,,
,stimulus,canvas.Screen,2_22_1_0,,,,,,response,5731.999999994063,376638.69999999553,376628.3,376702.6,382434.59999999404,382656.69999999553,2024-07-30T16:23:47.763Z,382738.9,WXvo7egSFR,incremental,anketa,6645cf40bc81b65c5faccf1d,participant,hcpib7dulz8mfr6x,,6,click @6,,Čega si gledao prepričavanje?,Gledao si prepričavanje filma.,di,,,31,,,
,Timer frame,html.Frame,2_22_1,,,,,,,5954.900000000023,376637.8999999985,376628.3,376702.6,382657.5,382658,2024-07-30T16:23:47.764Z,382738.9,WXvo7egSFR,incremental,anketa,6645cf40bc81b65c5faccf1d,participant,hcpib7dulz8mfr6x,,,,,Čega si gledao prepričavanje?,Gledao si prepričavanje filma.,di,,,31,,,
,Spremanje,canvas.Screen,2_22_2,,,,,,skipped,,382658.3999999985,,,382657.5,382658.69999999553,2024-07-30T16:23:47.765Z,382738.9,WXvo7egSFR,incremental,anketa,6645cf40bc81b65c5faccf1d,participant,hcpib7dulz8mfr6x,,,,,Čega si gledao prepričavanje?,Gledao si prepričavanje filma.,di,,,31,,,
,Question form,html.Form,2_22_3,,,,,,skipped,,382659.09999999404,,,382657.5,382659.5,2024-07-30T16:23:47.766Z,382738.9,WXvo7egSFR,incremental,anketa,6645cf40bc81b65c5faccf1d,participant,hcpib7dulz8mfr6x,,,,,Čega si gledao prepričavanje?,Gledao si prepričavanje filma.,di,,,31,,,
,Answer indication,canvas.Screen,2_22_4,,,,,,skipped,,382666,,,382657.5,382666.3999999985,2024-07-30T16:23:47.772Z,382738.9,WXvo7egSFR,incremental,anketa,6645cf40bc81b65c5faccf1d,participant,hcpib7dulz8mfr6x,,,,,Čega si gledao prepričavanje?,Gledao si prepričavanje filma.,di,,,31,,,
,inter-stimulus,canvas.Screen,2_22_5,,,,,,response,580.1999999940163,382666.69999999553,382655.6,382738.9,383319.09999999404,383503.3999999985,2024-07-30T16:23:48.610Z,383555.6,WXvo7egSFR,incremental,anketa,6645cf40bc81b65c5faccf1d,participant,hcpib7dulz8mfr6x,,,mousedown,,Čega si gledao prepričavanje?,Gledao si prepričavanje filma.,di,,,31,,,
,Sequence,flow.Sequence,2_22,,,,,,completion,7845.999999994063,375415.799999997,375415.4,375473.1,383319.09999999404,383504.09999999404,2024-07-30T16:23:48.610Z,383555.6,WXvo7egSFR,incremental,anketa,6645cf40bc81b65c5faccf1d,participant,hcpib7dulz8mfr6x,,,,,Čega si gledao prepričavanje?,Gledao si prepričavanje filma.,di,,,31,,,
,context,canvas.Screen,2_23_0_0,,,,,,response,2649.699999997043,383505.09999999404,383505.6,383555.6,386205.299999997,386450.5,2024-07-30T16:23:51.557Z,386530.6,WXvo7egSFR,incremental,anketa,6645cf40bc81b65c5faccf1d,participant,hcpib7dulz8mfr6x,,,click,,Kakva čovjeka svatko tko poznaje može potvrditi njegov integritet??,Svatko tko poznaje onog čovjeka može potvrditi njegov integritet..,si,33,31,12,,,2305
,Timer frame,html.Frame,2_23_0,,,,,,,2895.4000000000233,383504.59999999404,383505.6,383555.6,386451,386451.299999997,2024-07-30T16:23:51.557Z,386530.6,WXvo7egSFR,incremental,anketa,6645cf40bc81b65c5faccf1d,participant,hcpib7dulz8mfr6x,,,,,Kakva čovjeka svatko tko poznaje može potvrditi njegov integritet??,Svatko tko poznaje onog čovjeka može potvrditi njegov integritet..,si,33,31,12,,,2305
,stimulus,canvas.Screen,2_23_1_0,,,,,,response,1943.699999997043,386452.299999997,386447.3,386530.6,388474.299999997,388707.5,2024-07-30T16:23:53.814Z,388769.2,WXvo7egSFR,incremental,anketa,6645cf40bc81b65c5faccf1d,participant,hcpib7dulz8mfr6x,,1,click @1,,Kakva čovjeka svatko tko poznaje može potvrditi njegov integritet??,Svatko tko poznaje onog čovjeka može potvrditi njegov integritet..,si,33,31,12,,,2305
,Timer frame,html.Frame,2_23_1,,,,,,,2177.499999994063,386451.59999999404,386447.3,386530.6,388708.09999999404,388708.69999999553,2024-07-30T16:23:53.815Z,388769.2,WXvo7egSFR,incremental,anketa,6645cf40bc81b65c5faccf1d,participant,hcpib7dulz8mfr6x,,,,,Kakva čovjeka svatko tko poznaje može potvrditi njegov integritet??,Svatko tko poznaje onog čovjeka može potvrditi njegov integritet..,si,33,31,12,,,2305
,Spremanje,canvas.Screen,2_23_2,,,,,,skipped,,388709.09999999404,,,388708.09999999404,388709.19999999553,2024-07-30T16:23:53.815Z,388769.2,WXvo7egSFR,incremental,anketa,6645cf40bc81b65c5faccf1d,participant,hcpib7dulz8mfr6x,,,,,Kakva čovjeka svatko tko poznaje može potvrditi njegov integritet??,Svatko tko poznaje onog čovjeka može potvrditi njegov integritet..,si,33,31,12,,,2305
,Question form,html.Form,2_23_3,,,,,,skipped,,388709.5,,,388708.09999999404,388709.799999997,2024-07-30T16:23:53.816Z,388769.2,WXvo7egSFR,incremental,anketa,6645cf40bc81b65c5faccf1d,participant,hcpib7dulz8mfr6x,,,,,Kakva čovjeka svatko tko poznaje može potvrditi njegov integritet??,Svatko tko poznaje onog čovjeka može potvrditi njegov integritet..,si,33,31,12,,,2305
,Answer indication,canvas.Screen,2_23_4,,,,,,skipped,,388713,,,388708.09999999404,388713.09999999404,2024-07-30T16:23:53.819Z,388769.2,WXvo7egSFR,incremental,anketa,6645cf40bc81b65c5faccf1d,participant,hcpib7dulz8mfr6x,,,,,Kakva čovjeka svatko tko poznaje može potvrditi njegov integritet??,Svatko tko poznaje onog čovjeka može potvrditi njegov integritet..,si,33,31,12,,,2305
,inter-stimulus,canvas.Screen,2_23_5,,,,,,response,588.3999999940279,388713.299999997,388711.5,388769.2,389357.59999999404,389559,2024-07-30T16:23:54.665Z,389618.4,WXvo7egSFR,incremental,anketa,6645cf40bc81b65c5faccf1d,participant,hcpib7dulz8mfr6x,,,mousedown,,Kakva čovjeka svatko tko poznaje može potvrditi njegov integritet??,Svatko tko poznaje onog čovjeka može potvrditi njegov integritet..,si,33,31,12,,,2305
,Sequence,flow.Sequence,2_23,,,,,,completion,5801.999999994063,383504.5,383505.6,383555.6,389357.59999999404,389559.8999999985,2024-07-30T16:23:54.666Z,389618.4,WXvo7egSFR,incremental,anketa,6645cf40bc81b65c5faccf1d,participant,hcpib7dulz8mfr6x,,,,,Kakva čovjeka svatko tko poznaje može potvrditi njegov integritet??,Svatko tko poznaje onog čovjeka može potvrditi njegov integritet..,si,33,31,12,,,2305
,context,canvas.Screen,2_24_0_0,,,,,,response,3581.4999999984866,389561,389560.7,389618.4,393199.8999999985,393384.69999999553,2024-07-30T16:23:58.491Z,393471.2,WXvo7egSFR,incremental,anketa,6645cf40bc81b65c5faccf1d,participant,hcpib7dulz8mfr6x,,,click,,Na što je teško prestati besmisleno bacati novac?,Teško je prestati besmisleno bacati novac na tenisice.,si,,,13,,,
,Timer frame,html.Frame,2_24_0,,,,,,,3766.8999999969965,389560.299999997,389560.7,389618.4,393385.299999997,393385.799999997,2024-07-30T16:23:58.492Z,393471.2,WXvo7egSFR,incremental,anketa,6645cf40bc81b65c5faccf1d,participant,hcpib7dulz8mfr6x,,,,,Na što je teško prestati besmisleno bacati novac?,Teško je prestati besmisleno bacati novac na tenisice.,si,,,13,,,
,stimulus,canvas.Screen,2_24_1_0,,,,,,response,4809.199999998498,393387.59999999404,393388.6,393471.2,398280.3999999985,398465.19999999553,2024-07-30T16:24:03.571Z,398515.7,WXvo7egSFR,incremental,anketa,6645cf40bc81b65c5faccf1d,participant,hcpib7dulz8mfr6x,,7,click @7,,Na što je teško prestati besmisleno bacati novac?,Teško je prestati besmisleno bacati novac na tenisice.,si,,,13,,,
,Timer frame,html.Frame,2_24_1,,,,,,,4994.399999994028,393386.19999999553,393388.6,393471.2,398465.59999999404,398466,2024-07-30T16:24:03.572Z,398515.7,WXvo7egSFR,incremental,anketa,6645cf40bc81b65c5faccf1d,participant,hcpib7dulz8mfr6x,,,,,Na što je teško prestati besmisleno bacati novac?,Teško je prestati besmisleno bacati novac na tenisice.,si,,,13,,,
,Spremanje,canvas.Screen,2_24_2,,,,,,skipped,,398466.299999997,,,398465.59999999404,398466.5,2024-07-30T16:24:03.573Z,398515.7,WXvo7egSFR,incremental,anketa,6645cf40bc81b65c5faccf1d,participant,hcpib7dulz8mfr6x,,,,,Na što je teško prestati besmisleno bacati novac?,Teško je prestati besmisleno bacati novac na tenisice.,si,,,13,,,
,Question form,html.Form,2_24_3,,,,,,skipped,,398466.69999999553,,,398465.59999999404,398467,2024-07-30T16:24:03.573Z,398515.7,WXvo7egSFR,incremental,anketa,6645cf40bc81b65c5faccf1d,participant,hcpib7dulz8mfr6x,,,,,Na što je teško prestati besmisleno bacati novac?,Teško je prestati besmisleno bacati novac na tenisice.,si,,,13,,,
,Answer indication,canvas.Screen,2_24_4,,,,,,skipped,,398470.5,,,398465.59999999404,398470.69999999553,2024-07-30T16:24:03.577Z,398515.7,WXvo7egSFR,incremental,anketa,6645cf40bc81b65c5faccf1d,participant,hcpib7dulz8mfr6x,,,,,Na što je teško prestati besmisleno bacati novac?,Teško je prestati besmisleno bacati novac na tenisice.,si,,,13,,,
,inter-stimulus,canvas.Screen,2_24_5,,,,,,response,712.1999999984982,398471,398466.3,398515.7,399227.8999999985,399433,2024-07-30T16:24:04.539Z,399489.2,WXvo7egSFR,incremental,anketa,6645cf40bc81b65c5faccf1d,participant,hcpib7dulz8mfr6x,,,mousedown,,Na što je teško prestati besmisleno bacati novac?,Teško je prestati besmisleno bacati novac na tenisice.,si,,,13,,,
,Sequence,flow.Sequence,2_24,,,,,,completion,9609.499999998487,389560.09999999404,389560.7,389618.4,399227.8999999985,399435,2024-07-30T16:24:04.541Z,399489.2,WXvo7egSFR,incremental,anketa,6645cf40bc81b65c5faccf1d,participant,hcpib7dulz8mfr6x,,,,,Na što je teško prestati besmisleno bacati novac?,Teško je prestati besmisleno bacati novac na tenisice.,si,,,13,,,
,context,canvas.Screen,2_25_0_0,,,,,,response,3483.999999995518,399437.59999999404,399431.5,399489.2,402973.19999999553,403151.299999997,2024-07-30T16:24:08.257Z,403217.5,WXvo7egSFR,incremental,anketa,6645cf40bc81b65c5faccf1d,participant,hcpib7dulz8mfr6x,,,click,,Tko strah me i zamisliti s kakvim će se ogorčenjem vratiti kući??,Strah me i zamisliti s kakvim će se ogorčenjem moj brat vratiti kući..,ai,24,20,29,,,
,Timer frame,html.Frame,2_25_0,,,,,,,3662.599999997008,399436.19999999553,399431.5,399489.2,403151.799999997,403152.09999999404,2024-07-30T16:24:08.258Z,403217.5,WXvo7egSFR,incremental,anketa,6645cf40bc81b65c5faccf1d,participant,hcpib7dulz8mfr6x,,,,,Tko strah me i zamisliti s kakvim će se ogorčenjem vratiti kući??,Strah me i zamisliti s kakvim će se ogorčenjem moj brat vratiti kući..,ai,24,20,29,,,
,stimulus,canvas.Screen,2_25_1_0,,,,,,response,1733.5999999940395,403153.69999999553,403151.5,403217.5,404951.09999999404,405202.5,2024-07-30T16:24:10.309Z,405266.4,WXvo7egSFR,incremental,anketa,6645cf40bc81b65c5faccf1d,participant,hcpib7dulz8mfr6x,,1,click @1,,Tko strah me i zamisliti s kakvim će se ogorčenjem vratiti kući??,Strah me i zamisliti s kakvim će se ogorčenjem moj brat vratiti kući..,ai,24,20,29,,,
,Timer frame,html.Frame,2_25_1,,,,,,,1985.5999999940395,403152.8999999985,403151.5,403217.5,405203.09999999404,405203.3999999985,2024-07-30T16:24:10.310Z,405266.4,WXvo7egSFR,incremental,anketa,6645cf40bc81b65c5faccf1d,participant,hcpib7dulz8mfr6x,,,,,Tko strah me i zamisliti s kakvim će se ogorčenjem vratiti kući??,Strah me i zamisliti s kakvim će se ogorčenjem moj brat vratiti kući..,ai,24,20,29,,,
,Spremanje,canvas.Screen,2_25_2,,,,,,skipped,,405203.69999999553,,,405203.09999999404,405204,2024-07-30T16:24:10.310Z,405266.4,WXvo7egSFR,incremental,anketa,6645cf40bc81b65c5faccf1d,participant,hcpib7dulz8mfr6x,,,,,Tko strah me i zamisliti s kakvim će se ogorčenjem vratiti kući??,Strah me i zamisliti s kakvim će se ogorčenjem moj brat vratiti kući..,ai,24,20,29,,,
,Question form,html.Form,2_25_3,,,,,,skipped,,405204.09999999404,,,405203.09999999404,405204.59999999404,2024-07-30T16:24:10.311Z,405266.4,WXvo7egSFR,incremental,anketa,6645cf40bc81b65c5faccf1d,participant,hcpib7dulz8mfr6x,,,,,Tko strah me i zamisliti s kakvim će se ogorčenjem vratiti kući??,Strah me i zamisliti s kakvim će se ogorčenjem moj brat vratiti kući..,ai,24,20,29,,,
,Answer indication,canvas.Screen,2_25_4,,,,,,skipped,,405207.8999999985,,,405203.09999999404,405208.19999999553,2024-07-30T16:24:10.314Z,405266.4,WXvo7egSFR,incremental,anketa,6645cf40bc81b65c5faccf1d,participant,hcpib7dulz8mfr6x,,,,,Tko strah me i zamisliti s kakvim će se ogorčenjem vratiti kući??,Strah me i zamisliti s kakvim će se ogorčenjem moj brat vratiti kući..,ai,24,20,29,,,
,inter-stimulus,canvas.Screen,2_25_5,,,,,,response,835.7999999955064,405208.69999999553,405208.1,405266.4,406102.19999999553,406317.799999997,2024-07-30T16:24:11.424Z,406374.8,WXvo7egSFR,incremental,anketa,6645cf40bc81b65c5faccf1d,participant,hcpib7dulz8mfr6x,,,mousedown,,Tko strah me i zamisliti s kakvim će se ogorčenjem vratiti kući??,Strah me i zamisliti s kakvim će se ogorčenjem moj brat vratiti kući..,ai,24,20,29,,,
,Sequence,flow.Sequence,2_25,,,,,,completion,6612.999999995518,399435.8999999985,399431.5,399489.2,406102.19999999553,406319.8999999985,2024-07-30T16:24:11.426Z,406374.8,WXvo7egSFR,incremental,anketa,6645cf40bc81b65c5faccf1d,participant,hcpib7dulz8mfr6x,,,,,Tko strah me i zamisliti s kakvim će se ogorčenjem vratiti kući??,Strah me i zamisliti s kakvim će se ogorčenjem moj brat vratiti kući..,ai,24,20,29,,,
,context,canvas.Screen,2_26_0_0,,,,,,response,2063.8999999955413,406321.8999999985,406316.4,406374.8,408438.69999999553,408619,2024-07-30T16:24:13.725Z,408688.4,WXvo7egSFR,incremental,anketa,6645cf40bc81b65c5faccf1d,participant,hcpib7dulz8mfr6x,,,click,,Komu tužno je gledati da ljudi i dalje daju novac??,Tužno je gledati da ljudi i dalje daju novac šarlatanima..,si,38,33,19,,,
,Timer frame,html.Frame,2_26_0,,,,,,,2244.7000000000116,406321,406316.4,406374.8,408619.5,408619.8999999985,2024-07-30T16:24:13.726Z,408688.4,WXvo7egSFR,incremental,anketa,6645cf40bc81b65c5faccf1d,participant,hcpib7dulz8mfr6x,,,,,Komu tužno je gledati da ljudi i dalje daju novac??,Tužno je gledati da ljudi i dalje daju novac šarlatanima..,si,38,33,19,,,
,stimulus,canvas.Screen,2_26_1_0,,,,,,response,4412.199999994016,408621.09999999404,408621.7,408688.4,413100.59999999404,413317.59999999404,2024-07-30T16:24:18.424Z,413380.1,WXvo7egSFR,incremental,anketa,6645cf40bc81b65c5faccf1d,participant,hcpib7dulz8mfr6x,,1,click @1,,Komu tužno je gledati da ljudi i dalje daju novac??,Tužno je gledati da ljudi i dalje daju novac šarlatanima..,si,38,33,19,,,
,Timer frame,html.Frame,2_26_1,,,,,,,4629.799999995506,408620.09999999404,408621.7,408688.4,413318.19999999553,413318.5,2024-07-30T16:24:18.425Z,413380.1,WXvo7egSFR,incremental,anketa,6645cf40bc81b65c5faccf1d,participant,hcpib7dulz8mfr6x,,,,,Komu tužno je gledati da ljudi i dalje daju novac??,Tužno je gledati da ljudi i dalje daju novac šarlatanima..,si,38,33,19,,,
,Spremanje,canvas.Screen,2_26_2,,,,,,skipped,,413318.69999999553,,,413318.19999999553,413318.8999999985,2024-07-30T16:24:18.425Z,413380.1,WXvo7egSFR,incremental,anketa,6645cf40bc81b65c5faccf1d,participant,hcpib7dulz8mfr6x,,,,,Komu tužno je gledati da ljudi i dalje daju novac??,Tužno je gledati da ljudi i dalje daju novac šarlatanima..,si,38,33,19,,,
,Question form,html.Form,2_26_3,,,,,,skipped,,413319.09999999404,,,413318.19999999553,413319.299999997,2024-07-30T16:24:18.425Z,413380.1,WXvo7egSFR,incremental,anketa,6645cf40bc81b65c5faccf1d,participant,hcpib7dulz8mfr6x,,,,,Komu tužno je gledati da ljudi i dalje daju novac??,Tužno je gledati da ljudi i dalje daju novac šarlatanima..,si,38,33,19,,,
,Answer indication,canvas.Screen,2_26_4,,,,,,skipped,,413322.299999997,,,413318.19999999553,413322.69999999553,2024-07-30T16:24:18.429Z,413380.1,WXvo7egSFR,incremental,anketa,6645cf40bc81b65c5faccf1d,participant,hcpib7dulz8mfr6x,,,,,Komu tužno je gledati da ljudi i dalje daju novac??,Tužno je gledati da ljudi i dalje daju novac šarlatanima..,si,38,33,19,,,
,inter-stimulus,canvas.Screen,2_26_5,,,,,,response,601.2999999985332,413322.8999999985,413322.4,413380.1,413981.3999999985,414210.09999999404,2024-07-30T16:24:19.316Z,414278.5,WXvo7egSFR,incremental,anketa,6645cf40bc81b65c5faccf1d,participant,hcpib7dulz8mfr6x,,,mousedown,,Komu tužno je gledati da ljudi i dalje daju novac??,Tužno je gledati da ljudi i dalje daju novac šarlatanima..,si,38,33,19,,,
,Sequence,flow.Sequence,2_26,,,,,,completion,7606.5999999985215,406320.799999997,406316.4,406374.8,413981.3999999985,414212.19999999553,2024-07-30T16:24:19.318Z,414278.5,WXvo7egSFR,incremental,anketa,6645cf40bc81b65c5faccf1d,participant,hcpib7dulz8mfr6x,,,,,Komu tužno je gledati da ljudi i dalje daju novac??,Tužno je gledati da ljudi i dalje daju novac šarlatanima..,si,38,33,19,,,
,context,canvas.Screen,2_27_0_0,,,,,,response,1835.2999999970198,414214.5,414212.7,414278.5,416113.799999997,416357.299999997,2024-07-30T16:24:21.463Z,416417.7,WXvo7egSFR,incremental,anketa,6645cf40bc81b65c5faccf1d,participant,hcpib7dulz8mfr6x,,,click,,Za kim su banditi imali pitanja?,Ti banditi su imali pitanja za mene.,nf,,,40,,,
,Timer frame,html.Frame,2_27_0,,,,,,,2079.39999999851,414213.5,414212.7,414278.5,416357.8999999985,416358.19999999553,2024-07-30T16:24:21.464Z,416417.7,WXvo7egSFR,incremental,anketa,6645cf40bc81b65c5faccf1d,participant,hcpib7dulz8mfr6x,,,,,Za kim su banditi imali pitanja?,Ti banditi su imali pitanja za mene.,nf,,,40,,,
,stimulus,canvas.Screen,2_27_1_0,,,,,,response,1995.899999994028,416359.19999999553,416359.3,416417.7,418413.59999999404,418595.3999999985,2024-07-30T16:24:23.701Z,418644.4,WXvo7egSFR,incremental,anketa,6645cf40bc81b65c5faccf1d,participant,hcpib7dulz8mfr6x,,1,click @1,,Za kim su banditi imali pitanja?,Ti banditi su imali pitanja za mene.,nf,,,40,,,
,Timer frame,html.Frame,2_27_1,,,,,,,2178.1999999984982,416358.5,416359.3,416417.7,418595.8999999985,418596.19999999553,2024-07-30T16:24:23.702Z,418644.4,WXvo7egSFR,incremental,anketa,6645cf40bc81b65c5faccf1d,participant,hcpib7dulz8mfr6x,,,,,Za kim su banditi imali pitanja?,Ti banditi su imali pitanja za mene.,nf,,,40,,,
,Spremanje,canvas.Screen,2_27_2,,,,,,skipped,,418596.5,,,418595.8999999985,418596.799999997,2024-07-30T16:24:23.703Z,418644.4,WXvo7egSFR,incremental,anketa,6645cf40bc81b65c5faccf1d,participant,hcpib7dulz8mfr6x,,,,,Za kim su banditi imali pitanja?,Ti banditi su imali pitanja za mene.,nf,,,40,,,
,Question form,html.Form,2_27_3,,,,,,skipped,,418597,,,418595.8999999985,418597.19999999553,2024-07-30T16:24:23.703Z,418644.4,WXvo7egSFR,incremental,anketa,6645cf40bc81b65c5faccf1d,participant,hcpib7dulz8mfr6x,,,,,Za kim su banditi imali pitanja?,Ti banditi su imali pitanja za mene.,nf,,,40,,,
,Answer indication,canvas.Screen,2_27_4,,,,,,skipped,,418600.59999999404,,,418595.8999999985,418600.799999997,2024-07-30T16:24:23.707Z,418644.4,WXvo7egSFR,incremental,anketa,6645cf40bc81b65c5faccf1d,participant,hcpib7dulz8mfr6x,,,,,Za kim su banditi imali pitanja?,Ti banditi su imali pitanja za mene.,nf,,,40,,,
,inter-stimulus,canvas.Screen,2_27_5,,,,,,response,531.2999999955064,418600.8999999985,418594.4,418644.4,419175.69999999553,419378.19999999553,2024-07-30T16:24:24.484Z,419419.9,WXvo7egSFR,incremental,anketa,6645cf40bc81b65c5faccf1d,participant,hcpib7dulz8mfr6x,,,mousedown,,Za kim su banditi imali pitanja?,Ti banditi su imali pitanja za mene.,nf,,,40,,,
,Sequence,flow.Sequence,2_27,,,,,,completion,4897.19999999553,414213.19999999553,414212.7,414278.5,419175.69999999553,419379.09999999404,2024-07-30T16:24:24.485Z,419419.9,WXvo7egSFR,incremental,anketa,6645cf40bc81b65c5faccf1d,participant,hcpib7dulz8mfr6x,,,,,Za kim su banditi imali pitanja?,Ti banditi su imali pitanja za mene.,nf,,,40,,,
,context,canvas.Screen,2_28_0_0,,,,,,response,1898.1999999940163,419380.19999999553,419378.2,419419.9,421318.09999999404,421539.3999999985,2024-07-30T16:24:26.645Z,421604.1,WXvo7egSFR,incremental,anketa,6645cf40bc81b65c5faccf1d,participant,hcpib7dulz8mfr6x,,,click,,Stare su samo Čehovljeve priče bile u ovoj knjižnici..,Samo su Čehovljeve priče bile stare u ovoj knjižnici..,di,35,35,33,,,
,Timer frame,html.Frame,2_28_0,,,,,,,2119.9999999984866,419379.5,419378.2,419419.9,421539.8999999985,421540.19999999553,2024-07-30T16:24:26.646Z,421604.1,WXvo7egSFR,incremental,anketa,6645cf40bc81b65c5faccf1d,participant,hcpib7dulz8mfr6x,,,,,Stare su samo Čehovljeve priče bile u ovoj knjižnici..,Samo su Čehovljeve priče bile stare u ovoj knjižnici..,di,35,35,33,,,
,stimulus,canvas.Screen,2_28_1_0,,,,,,response,6478.999999994063,421541.19999999553,421537.4,421604.1,428083.09999999404,428272,2024-07-30T16:24:33.378Z,428344.8,WXvo7egSFR,incremental,anketa,6645cf40bc81b65c5faccf1d,participant,hcpib7dulz8mfr6x,,4,click @4,,Stare su samo Čehovljeve priče bile u ovoj knjižnici..,Samo su Čehovljeve priče bile stare u ovoj knjižnici..,di,35,35,33,,,
,Timer frame,html.Frame,2_28_1,,,,,,,6668.900000000023,421540.5,421537.4,421604.1,428273,428273.799999997,2024-07-30T16:24:33.380Z,428344.8,WXvo7egSFR,incremental,anketa,6645cf40bc81b65c5faccf1d,participant,hcpib7dulz8mfr6x,,,,,Stare su samo Čehovljeve priče bile u ovoj knjižnici..,Samo su Čehovljeve priče bile stare u ovoj knjižnici..,di,35,35,33,,,
,Spremanje,canvas.Screen,2_28_2,,,,,,skipped,,428274.09999999404,,,428273,428274.5,2024-07-30T16:24:33.381Z,428344.8,WXvo7egSFR,incremental,anketa,6645cf40bc81b65c5faccf1d,participant,hcpib7dulz8mfr6x,,,,,Stare su samo Čehovljeve priče bile u ovoj knjižnici..,Samo su Čehovljeve priče bile stare u ovoj knjižnici..,di,35,35,33,,,
,Question form,html.Form,2_28_3,,,,,,skipped,,428274.8999999985,,,428273,428275.19999999553,2024-07-30T16:24:33.381Z,428344.8,WXvo7egSFR,incremental,anketa,6645cf40bc81b65c5faccf1d,participant,hcpib7dulz8mfr6x,,,,,Stare su samo Čehovljeve priče bile u ovoj knjižnici..,Samo su Čehovljeve priče bile stare u ovoj knjižnici..,di,35,35,33,,,
,Answer indication,canvas.Screen,2_28_4,,,,,,skipped,,428282.19999999553,,,428273,428282.5,2024-07-30T16:24:33.389Z,428344.8,WXvo7egSFR,incremental,anketa,6645cf40bc81b65c5faccf1d,participant,hcpib7dulz8mfr6x,,,,,Stare su samo Čehovljeve priče bile u ovoj knjižnici..,Samo su Čehovljeve priče bile stare u ovoj knjižnici..,di,35,35,33,,,
,inter-stimulus,canvas.Screen,2_28_5,,,,,,response,694.8999999955413,428282.799999997,428269.8,428344.8,429039.69999999553,429273,2024-07-30T16:24:34.379Z,429344.8,WXvo7egSFR,incremental,anketa,6645cf40bc81b65c5faccf1d,participant,hcpib7dulz8mfr6x,,,mousedown,,Stare su samo Čehovljeve priče bile u ovoj knjižnici..,Samo su Čehovljeve priče bile stare u ovoj knjižnici..,di,35,35,33,,,
,Sequence,flow.Sequence,2_28,,,,,,completion,9619.799999995506,419379.299999997,419378.2,419419.9,429039.69999999553,429274.799999997,2024-07-30T16:24:34.381Z,429344.8,WXvo7egSFR,incremental,anketa,6645cf40bc81b65c5faccf1d,participant,hcpib7dulz8mfr6x,,,,,Stare su samo Čehovljeve priče bile u ovoj knjižnici..,Samo su Čehovljeve priče bile stare u ovoj knjižnici..,di,35,35,33,,,
,context,canvas.Screen,2_29_0_0,,,,,,response,1264.4999999970314,429277,429278.1,429344.8,430609.299999997,430783.5,2024-07-30T16:24:35.890Z,430856.5,WXvo7egSFR,incremental,anketa,6645cf40bc81b65c5faccf1d,participant,hcpib7dulz8mfr6x,,,click,,Što ćemo uništit i saditi vrtove?,Uništit ćemo carstva i saditi vrtove.,csi,0,0,5,,,
,Timer frame,html.Frame,2_29_0,,,,,,,1439.2000000000116,429275.69999999553,429278.1,429344.8,430784,430784.5,2024-07-30T16:24:35.891Z,430856.5,WXvo7egSFR,incremental,anketa,6645cf40bc81b65c5faccf1d,participant,hcpib7dulz8mfr6x,,,,,Što ćemo uništit i saditi vrtove?,Uništit ćemo carstva i saditi vrtove.,csi,0,0,5,,,
,stimulus,canvas.Screen,2_29_1_0,,,,,,response,10022.39999999851,430785.59999999404,430782.3,430856.5,440878.8999999985,441090.299999997,2024-07-30T16:24:46.196Z,441162.2,WXvo7egSFR,incremental,anketa,6645cf40bc81b65c5faccf1d,participant,hcpib7dulz8mfr6x,,6,click @6,,Što ćemo uništit i saditi vrtove?,Uništit ćemo carstva i saditi vrtove.,csi,0,0,5,,,
,Timer frame,html.Frame,2_29_1,,,,,,,10234.59999999404,430784.799999997,430782.3,430856.5,441091.09999999404,441091.69999999553,2024-07-30T16:24:46.198Z,441162.2,WXvo7egSFR,incremental,anketa,6645cf40bc81b65c5faccf1d,participant,hcpib7dulz8mfr6x,,,,,Što ćemo uništit i saditi vrtove?,Uništit ćemo carstva i saditi vrtove.,csi,0,0,5,,,
,Spremanje,canvas.Screen,2_29_2,,,,,,skipped,,441092.09999999404,,,441091.09999999404,441092.69999999553,2024-07-30T16:24:46.199Z,441162.2,WXvo7egSFR,incremental,anketa,6645cf40bc81b65c5faccf1d,participant,hcpib7dulz8mfr6x,,,,,Što ćemo uništit i saditi vrtove?,Uništit ćemo carstva i saditi vrtove.,csi,0,0,5,,,
,Question form,html.Form,2_29_3,,,,,,skipped,,441093,,,441091.09999999404,441093.299999997,2024-07-30T16:24:46.199Z,441162.2,WXvo7egSFR,incremental,anketa,6645cf40bc81b65c5faccf1d,participant,hcpib7dulz8mfr6x,,,,,Što ćemo uništit i saditi vrtove?,Uništit ćemo carstva i saditi vrtove.,csi,0,0,5,,,
,Answer indication,canvas.Screen,2_29_4,,,,,,skipped,,441099.3999999985,,,441091.09999999404,441099.799999997,2024-07-30T16:24:46.206Z,441162.2,WXvo7egSFR,incremental,anketa,6645cf40bc81b65c5faccf1d,participant,hcpib7dulz8mfr6x,,,,,Što ćemo uništit i saditi vrtove?,Uništit ćemo carstva i saditi vrtove.,csi,0,0,5,,,
