meta,sender,sender_type,sender_id,age,education,croatian-knowledge,occupation,,ended_on,duration,time_run,time_render,time_show,time_end,time_commit,timestamp,time_switch,openLabId,type,task,project,status,code,confirmationCode,response,response_action,answer_true,stimulus,context,island_type,transfer_s,transfer_c,id,right_answer,question,change_date
"{""labjs_version"":""20.2.4"",""labjs_build"":{""flavor"":""production"",""commit"":""f5b4a49f956347addd546a832a3327688c2c0fef""},""location"":""https://open-lab.online/test/anketa/66a93429e3bab725623a41ea"",""userAgent"":""Mozilla/5.0 (Windows NT 10.0; Win64; x64; rv:128.0) Gecko/20100101 Firefox/128.0"",""platform"":""Win32"",""language"":""en-GB"",""locale"":""en-GB"",""timeZone"":""Europe/Zagreb"",""timezoneOffset"":-120,""screen_width"":1536,""screen_height"":864,""scroll_width"":1320,""scroll_height"":701,""window_innerWidth"":1320,""window_innerHeight"":748,""devicePixelRatio"":1.25}",Demography form,html.Form,0,26,highschool,mother-tongue,nezaposlen,,form submission,70438.02,8166,9154.22,10664.98,81103,81109,2024-07-30T18:44:08.944Z,81120.68,xHUlK1O4oq,incremental,anketa,6645cf40bc81b65c5faccf1d,participant,hcpib7dulz8rmo1n,485517,,,,,,,,,,,,
,context,canvas.Screen,1_0,,,,,,response,8797.320000000007,81111,81097.46,81120.68,89918,89936,2024-07-30T18:44:17.771Z,89945.78,xHUlK1O4oq,incremental,anketa,6645cf40bc81b65c5faccf1d,participant,hcpib7dulz8rmo1n,,,click,,,,,,,,,,
,stimulus,canvas.Screen,1_1,,,,,,response,23394.22,89936,89934.2,89945.78,113340,113351,2024-07-30T18:44:41.187Z,113357.12,xHUlK1O4oq,incremental,anketa,6645cf40bc81b65c5faccf1d,participant,hcpib7dulz8rmo1n,,7,click @7,,,,,,,,,,
,inter-stimulus,canvas.Screen,1_2,,,,,,response,2154.8800000000047,113351,113347.18,113357.12,115512,115520,2024-07-30T18:44:43.355Z,115521.78,xHUlK1O4oq,incremental,anketa,6645cf40bc81b65c5faccf1d,participant,hcpib7dulz8rmo1n,,,mousedown,,,,,,,,,,
,context,canvas.Screen,1_3,,,,,,response,2692.220000000001,115520,115517.16,115521.78,118214,118231,2024-07-30T18:44:46.066Z,118235.86,xHUlK1O4oq,incremental,anketa,6645cf40bc81b65c5faccf1d,participant,hcpib7dulz8rmo1n,,,click,,,,,,,,,,
,stimulus,canvas.Screen,1_4,,,,,,response,4071.1399999999994,118231,118229.72,118235.86,122307,122328,2024-07-30T18:44:50.164Z,122332.14,xHUlK1O4oq,incremental,anketa,6645cf40bc81b65c5faccf1d,participant,hcpib7dulz8rmo1n,,1,click @1,,,,,,,,,,
,inter-stimulus,canvas.Screen,1_5,,,,,,response,819.8600000000006,122329,122327.26,122332.14,123152,123168,2024-07-30T18:44:51.003Z,123181.32,xHUlK1O4oq,incremental,anketa,6645cf40bc81b65c5faccf1d,participant,hcpib7dulz8rmo1n,,,mousedown,,,,,,,,,,
,context,canvas.Screen,1_6,,,,,,response,2875.679999999993,123168,123165.88,123181.32,126057,126067,2024-07-30T18:44:53.902Z,126078.4,xHUlK1O4oq,incremental,anketa,6645cf40bc81b65c5faccf1d,participant,hcpib7dulz8rmo1n,,,click,,,,,,,,,,
,stimulus,canvas.Screen,1_7_0,,,,,,response,9245.600000000006,126068,126065.16,126078.4,135324,135345,2024-07-30T18:45:03.181Z,135353.12,xHUlK1O4oq,incremental,anketa,6645cf40bc81b65c5faccf1d,participant,hcpib7dulz8rmo1n,,5,click @5,,,,,,,,,,
,Timer frame,html.Frame,1_7,,,,,,,9267.600000000006,126067,126065.16,126078.4,135346,135347,2024-07-30T18:45:03.183Z,135353.12,xHUlK1O4oq,incremental,anketa,6645cf40bc81b65c5faccf1d,participant,hcpib7dulz8rmo1n,,,,,,,,,,,,,
,Screen,canvas.Screen,1_8,,,,,,response,236.88000000000466,135348,135338.18,135353.12,135590,135613,2024-07-30T18:45:03.449Z,135636.18,xHUlK1O4oq,incremental,anketa,6645cf40bc81b65c5faccf1d,participant,hcpib7dulz8rmo1n,,,mousedown,,,,,,,,,,
,Question form,html.Form,1_9,,,,,,form submission,7394.820000000007,135614,135619.52,135636.18,143031,143032,2024-07-30T18:45:10.868Z,143045.86,xHUlK1O4oq,incremental,anketa,6645cf40bc81b65c5faccf1d,participant,hcpib7dulz8rmo1n,,,,zrele,,,,,,,,,
,Screen,canvas.Screen,1_10,,,,,,response,1027.140000000014,143046,143030.1,143045.86,144073,144089,2024-07-30T18:45:11.925Z,144094.86,xHUlK1O4oq,incremental,anketa,6645cf40bc81b65c5faccf1d,participant,hcpib7dulz8rmo1n,,,keypress,,,,,,,,,,
,inter-stimulus,canvas.Screen,1_11,,,,,,response,3228.140000000014,144090,144089.84,144094.86,147323,147344,2024-07-30T18:45:15.180Z,147358.46,xHUlK1O4oq,incremental,anketa,6645cf40bc81b65c5faccf1d,participant,hcpib7dulz8rmo1n,,,keypress,,,,,,,,,,
,First stimuli,flow.Sequence,1,,,,,,completion,66202.32,81110,81097.46,81120.68,147323,147344,2024-07-30T18:45:15.180Z,147358.46,xHUlK1O4oq,incremental,anketa,6645cf40bc81b65c5faccf1d,participant,hcpib7dulz8rmo1n,,,,,,,,,,,,,
,context,canvas.Screen,2_0_0_0,,,,,,response,4120.540000000008,147346,147345.66,147358.46,151479,151486,2024-07-30T18:45:19.322Z,151487.94,xHUlK1O4oq,incremental,anketa,6645cf40bc81b65c5faccf1d,participant,hcpib7dulz8rmo1n,,,keypress,,Što mama hvali kćer koja je u školi dobila?,Mama hvali kćer koja je u školi dobila peticu.,cnp,,,11,,,
,Timer frame,html.Frame,2_0_0,,,,,,,4127.540000000008,147346,147345.66,147358.46,151486,151487,2024-07-30T18:45:19.322Z,151487.94,xHUlK1O4oq,incremental,anketa,6645cf40bc81b65c5faccf1d,participant,hcpib7dulz8rmo1n,,,,,Što mama hvali kćer koja je u školi dobila?,Mama hvali kćer koja je u školi dobila peticu.,cnp,,,11,,,
,stimulus,canvas.Screen,2_0_1_0,,,,,,response,3977.0599999999977,151488,151487.42,151487.94,155465,155478,2024-07-30T18:45:23.313Z,155484.18,xHUlK1O4oq,incremental,anketa,6645cf40bc81b65c5faccf1d,participant,hcpib7dulz8rmo1n,,1,click @1,,Što mama hvali kćer koja je u školi dobila?,Mama hvali kćer koja je u školi dobila peticu.,cnp,,,11,,,
,Timer frame,html.Frame,2_0_1,,,,,,,3990.0599999999977,151487,151487.42,151487.94,155478,155478,2024-07-30T18:45:23.314Z,155484.18,xHUlK1O4oq,incremental,anketa,6645cf40bc81b65c5faccf1d,participant,hcpib7dulz8rmo1n,,,,,Što mama hvali kćer koja je u školi dobila?,Mama hvali kćer koja je u školi dobila peticu.,cnp,,,11,,,
,Spremanje,canvas.Screen,2_0_2,,,,,,skipped,,155478,,,155478,155478,2024-07-30T18:45:23.314Z,155484.18,xHUlK1O4oq,incremental,anketa,6645cf40bc81b65c5faccf1d,participant,hcpib7dulz8rmo1n,,,,,Što mama hvali kćer koja je u školi dobila?,Mama hvali kćer koja je u školi dobila peticu.,cnp,,,11,,,
,Question form,html.Form,2_0_3,,,,,,skipped,,155479,,,155478,155479,2024-07-30T18:45:23.315Z,155484.18,xHUlK1O4oq,incremental,anketa,6645cf40bc81b65c5faccf1d,participant,hcpib7dulz8rmo1n,,,,,Što mama hvali kćer koja je u školi dobila?,Mama hvali kćer koja je u školi dobila peticu.,cnp,,,11,,,
,Answer indication,canvas.Screen,2_0_4,,,,,,skipped,,155485,,,155478,155485,2024-07-30T18:45:23.321Z,155484.18,xHUlK1O4oq,incremental,anketa,6645cf40bc81b65c5faccf1d,participant,hcpib7dulz8rmo1n,,,,,Što mama hvali kćer koja je u školi dobila?,Mama hvali kćer koja je u školi dobila peticu.,cnp,,,11,,,
,inter-stimulus,canvas.Screen,2_0_5,,,,,,response,1276.820000000007,155486,155476.12,155484.18,156761,156782,2024-07-30T18:45:24.617Z,156799.74,xHUlK1O4oq,incremental,anketa,6645cf40bc81b65c5faccf1d,participant,hcpib7dulz8rmo1n,,,mousedown,,Što mama hvali kćer koja je u školi dobila?,Mama hvali kćer koja je u školi dobila peticu.,cnp,,,11,,,
,Sequence,flow.Sequence,2_0,,,,,,completion,9402.540000000008,147346,147345.66,147358.46,156761,156782,2024-07-30T18:45:24.619Z,156799.74,xHUlK1O4oq,incremental,anketa,6645cf40bc81b65c5faccf1d,participant,hcpib7dulz8rmo1n,,,,,Što mama hvali kćer koja je u školi dobila?,Mama hvali kćer koja je u školi dobila peticu.,cnp,,,11,,,
,context,canvas.Screen,2_1_0_0,,,,,,response,5179.260000000009,156784,156783.08,156799.74,161979,161986,2024-07-30T18:45:29.822Z,161994.68,xHUlK1O4oq,incremental,anketa,6645cf40bc81b65c5faccf1d,participant,hcpib7dulz8rmo1n,,,click,,Sanjam dvorac iz kojeg se čuje glasan plač daleko..,Sanjam dvorac daleko iz kojeg se čuje glasan plač..,ai,30,37,26,,,
,Timer frame,html.Frame,2_1_0,,,,,,,5187.260000000009,156784,156783.08,156799.74,161987,161987,2024-07-30T18:45:29.823Z,161994.68,xHUlK1O4oq,incremental,anketa,6645cf40bc81b65c5faccf1d,participant,hcpib7dulz8rmo1n,,,,,Sanjam dvorac iz kojeg se čuje glasan plač daleko..,Sanjam dvorac daleko iz kojeg se čuje glasan plač..,ai,30,37,26,,,
,stimulus,canvas.Screen,2_1_1_0,,,,,,response,2704.320000000007,161988,161985.68,161994.68,164699,164712,2024-07-30T18:45:32.547Z,164725.44,xHUlK1O4oq,incremental,anketa,6645cf40bc81b65c5faccf1d,participant,hcpib7dulz8rmo1n,,1,click @1,,Sanjam dvorac iz kojeg se čuje glasan plač daleko..,Sanjam dvorac daleko iz kojeg se čuje glasan plač..,ai,30,37,26,,,
,Timer frame,html.Frame,2_1_1,,,,,,,2717.320000000007,161987,161985.68,161994.68,164712,164712,2024-07-30T18:45:32.547Z,164725.44,xHUlK1O4oq,incremental,anketa,6645cf40bc81b65c5faccf1d,participant,hcpib7dulz8rmo1n,,,,,Sanjam dvorac iz kojeg se čuje glasan plač daleko..,Sanjam dvorac daleko iz kojeg se čuje glasan plač..,ai,30,37,26,,,
,Spremanje,canvas.Screen,2_1_2,,,,,,skipped,,164712,,,164712,164713,2024-07-30T18:45:32.548Z,164725.44,xHUlK1O4oq,incremental,anketa,6645cf40bc81b65c5faccf1d,participant,hcpib7dulz8rmo1n,,,,,Sanjam dvorac iz kojeg se čuje glasan plač daleko..,Sanjam dvorac daleko iz kojeg se čuje glasan plač..,ai,30,37,26,,,
,Question form,html.Form,2_1_3,,,,,,skipped,,164713,,,164712,164713,2024-07-30T18:45:32.548Z,164725.44,xHUlK1O4oq,incremental,anketa,6645cf40bc81b65c5faccf1d,participant,hcpib7dulz8rmo1n,,,,,Sanjam dvorac iz kojeg se čuje glasan plač daleko..,Sanjam dvorac daleko iz kojeg se čuje glasan plač..,ai,30,37,26,,,
,Answer indication,canvas.Screen,2_1_4,,,,,,skipped,,164716,,,164712,164717,2024-07-30T18:45:32.553Z,164725.44,xHUlK1O4oq,incremental,anketa,6645cf40bc81b65c5faccf1d,participant,hcpib7dulz8rmo1n,,,,,Sanjam dvorac iz kojeg se čuje glasan plač daleko..,Sanjam dvorac daleko iz kojeg se čuje glasan plač..,ai,30,37,26,,,
,inter-stimulus,canvas.Screen,2_1_5,,,,,,response,831.5599999999977,164717,164710.18,164725.44,165557,165580,2024-07-30T18:45:33.416Z,165607.9,xHUlK1O4oq,incremental,anketa,6645cf40bc81b65c5faccf1d,participant,hcpib7dulz8rmo1n,,,mousedown,,Sanjam dvorac iz kojeg se čuje glasan plač daleko..,Sanjam dvorac daleko iz kojeg se čuje glasan plač..,ai,30,37,26,,,
,Sequence,flow.Sequence,2_1,,,,,,completion,8757.26000000001,156782,156783.08,156799.74,165557,165581,2024-07-30T18:45:33.416Z,165607.9,xHUlK1O4oq,incremental,anketa,6645cf40bc81b65c5faccf1d,participant,hcpib7dulz8rmo1n,,,,,Sanjam dvorac iz kojeg se čuje glasan plač daleko..,Sanjam dvorac daleko iz kojeg se čuje glasan plač..,ai,30,37,26,,,
,context,canvas.Screen,2_2_0_0,,,,,,response,6684.100000000006,165582,165591.24,165607.9,172292,172312,2024-07-30T18:45:40.148Z,172334.94,xHUlK1O4oq,incremental,anketa,6645cf40bc81b65c5faccf1d,participant,hcpib7dulz8rmo1n,,,click,,Stare su samo Čehovljeve priče bile u ovoj knjižnici..,Samo su Čehovljeve priče bile stare u ovoj knjižnici..,di,35,35,33,,,
,Timer frame,html.Frame,2_2_0,,,,,,,6704.100000000006,165581,165591.24,165607.9,172312,172313,2024-07-30T18:45:40.149Z,172334.94,xHUlK1O4oq,incremental,anketa,6645cf40bc81b65c5faccf1d,participant,hcpib7dulz8rmo1n,,,,,Stare su samo Čehovljeve priče bile u ovoj knjižnici..,Samo su Čehovljeve priče bile stare u ovoj knjižnici..,di,35,35,33,,,
,stimulus,canvas.Screen,2_2_1_0,,,,,,response,2348.0599999999977,172314,172318.4,172334.94,174683,174690,2024-07-30T18:45:42.525Z,174699.46,xHUlK1O4oq,incremental,anketa,6645cf40bc81b65c5faccf1d,participant,hcpib7dulz8rmo1n,,1,click @1,,Stare su samo Čehovljeve priče bile u ovoj knjižnici..,Samo su Čehovljeve priče bile stare u ovoj knjižnici..,di,35,35,33,,,
,Timer frame,html.Frame,2_2_1,,,,,,,2356.0599999999977,172313,172318.4,172334.94,174691,174692,2024-07-30T18:45:42.527Z,174699.46,xHUlK1O4oq,incremental,anketa,6645cf40bc81b65c5faccf1d,participant,hcpib7dulz8rmo1n,,,,,Stare su samo Čehovljeve priče bile u ovoj knjižnici..,Samo su Čehovljeve priče bile stare u ovoj knjižnici..,di,35,35,33,,,
,Spremanje,canvas.Screen,2_2_2,,,,,,skipped,,174692,,,174691,174693,2024-07-30T18:45:42.529Z,174699.46,xHUlK1O4oq,incremental,anketa,6645cf40bc81b65c5faccf1d,participant,hcpib7dulz8rmo1n,,,,,Stare su samo Čehovljeve priče bile u ovoj knjižnici..,Samo su Čehovljeve priče bile stare u ovoj knjižnici..,di,35,35,33,,,
,Question form,html.Form,2_2_3,,,,,,skipped,,174693,,,174691,174694,2024-07-30T18:45:42.529Z,174699.46,xHUlK1O4oq,incremental,anketa,6645cf40bc81b65c5faccf1d,participant,hcpib7dulz8rmo1n,,,,,Stare su samo Čehovljeve priče bile u ovoj knjižnici..,Samo su Čehovljeve priče bile stare u ovoj knjižnici..,di,35,35,33,,,
,Answer indication,canvas.Screen,2_2_4,,,,,,skipped,,174707,,,174691,174707,2024-07-30T18:45:42.542Z,174699.46,xHUlK1O4oq,incremental,anketa,6645cf40bc81b65c5faccf1d,participant,hcpib7dulz8rmo1n,,,,,Stare su samo Čehovljeve priče bile u ovoj knjižnici..,Samo su Čehovljeve priče bile stare u ovoj knjižnici..,di,35,35,33,,,
,inter-stimulus,canvas.Screen,2_2_5,,,,,,response,530.5400000000081,174708,174685.18,174699.46,175230,175243,2024-07-30T18:45:43.079Z,175265.5,xHUlK1O4oq,incremental,anketa,6645cf40bc81b65c5faccf1d,participant,hcpib7dulz8rmo1n,,,mousedown,,Stare su samo Čehovljeve priče bile u ovoj knjižnici..,Samo su Čehovljeve priče bile stare u ovoj knjižnici..,di,35,35,33,,,
,Sequence,flow.Sequence,2_2,,,,,,completion,9622.100000000006,165581,165591.24,165607.9,175230,175244,2024-07-30T18:45:43.079Z,175265.5,xHUlK1O4oq,incremental,anketa,6645cf40bc81b65c5faccf1d,participant,hcpib7dulz8rmo1n,,,,,Stare su samo Čehovljeve priče bile u ovoj knjižnici..,Samo su Čehovljeve priče bile stare u ovoj knjižnici..,di,35,35,33,,,
,context,canvas.Screen,2_3_0_0,,,,,,response,6416.5,175245,175248.92,175265.5,181682,181705,2024-07-30T18:45:49.541Z,181709.54,xHUlK1O4oq,incremental,anketa,6645cf40bc81b65c5faccf1d,participant,hcpib7dulz8rmo1n,,,click,,Za koliko novca nevjerojatno je da je Goran prodao svoj stan??,Ono da je Goran prodao svoj stan za toliki novac nevjerojatno je..,si,31,32,18,,,
,Timer frame,html.Frame,2_3_0,,,,,,,6440.5,175244,175248.92,175265.5,181706,181706,2024-07-30T18:45:49.542Z,181709.54,xHUlK1O4oq,incremental,anketa,6645cf40bc81b65c5faccf1d,participant,hcpib7dulz8rmo1n,,,,,Za koliko novca nevjerojatno je da je Goran prodao svoj stan??,Ono da je Goran prodao svoj stan za toliki novac nevjerojatno je..,si,31,32,18,,,
,stimulus,canvas.Screen,2_3_1_0,,,,,,response,3863.459999999992,181707,181704.4,181709.54,185573,185591,2024-07-30T18:45:53.426Z,185605.9,xHUlK1O4oq,incremental,anketa,6645cf40bc81b65c5faccf1d,participant,hcpib7dulz8rmo1n,,2,click @2,,Za koliko novca nevjerojatno je da je Goran prodao svoj stan??,Ono da je Goran prodao svoj stan za toliki novac nevjerojatno je..,si,31,32,18,,,
,Timer frame,html.Frame,2_3_1,,,,,,,3881.459999999992,181706,181704.4,181709.54,185591,185592,2024-07-30T18:45:53.427Z,185605.9,xHUlK1O4oq,incremental,anketa,6645cf40bc81b65c5faccf1d,participant,hcpib7dulz8rmo1n,,,,,Za koliko novca nevjerojatno je da je Goran prodao svoj stan??,Ono da je Goran prodao svoj stan za toliki novac nevjerojatno je..,si,31,32,18,,,
,Spremanje,canvas.Screen,2_3_2,,,,,,skipped,,185592,,,185591,185592,2024-07-30T18:45:53.428Z,185605.9,xHUlK1O4oq,incremental,anketa,6645cf40bc81b65c5faccf1d,participant,hcpib7dulz8rmo1n,,,,,Za koliko novca nevjerojatno je da je Goran prodao svoj stan??,Ono da je Goran prodao svoj stan za toliki novac nevjerojatno je..,si,31,32,18,,,
,Question form,html.Form,2_3_3,,,,,,skipped,,185592,,,185591,185594,2024-07-30T18:45:53.429Z,185605.9,xHUlK1O4oq,incremental,anketa,6645cf40bc81b65c5faccf1d,participant,hcpib7dulz8rmo1n,,,,,Za koliko novca nevjerojatno je da je Goran prodao svoj stan??,Ono da je Goran prodao svoj stan za toliki novac nevjerojatno je..,si,31,32,18,,,
,Answer indication,canvas.Screen,2_3_4,,,,,,skipped,,185598,,,185591,185598,2024-07-30T18:45:53.434Z,185605.9,xHUlK1O4oq,incremental,anketa,6645cf40bc81b65c5faccf1d,participant,hcpib7dulz8rmo1n,,,,,Za koliko novca nevjerojatno je da je Goran prodao svoj stan??,Ono da je Goran prodao svoj stan za toliki novac nevjerojatno je..,si,31,32,18,,,
,inter-stimulus,canvas.Screen,2_3_5,,,,,,response,576.1000000000058,185599,185589.22,185605.9,186182,186203,2024-07-30T18:45:54.038Z,186221.84,xHUlK1O4oq,incremental,anketa,6645cf40bc81b65c5faccf1d,participant,hcpib7dulz8rmo1n,,,mousedown,,Za koliko novca nevjerojatno je da je Goran prodao svoj stan??,Ono da je Goran prodao svoj stan za toliki novac nevjerojatno je..,si,31,32,18,,,
,Sequence,flow.Sequence,2_3,,,,,,completion,10916.5,175244,175248.92,175265.5,186182,186203,2024-07-30T18:45:54.039Z,186221.84,xHUlK1O4oq,incremental,anketa,6645cf40bc81b65c5faccf1d,participant,hcpib7dulz8rmo1n,,,,,Za koliko novca nevjerojatno je da je Goran prodao svoj stan??,Ono da je Goran prodao svoj stan za toliki novac nevjerojatno je..,si,31,32,18,,,
,context,canvas.Screen,2_4_0_0,,,,,,response,4070.1600000000035,186204,186205.32,186221.84,190292,190297,2024-07-30T18:45:58.133Z,190301.4,xHUlK1O4oq,incremental,anketa,6645cf40bc81b65c5faccf1d,participant,hcpib7dulz8rmo1n,,,click,,Nešto se mu otac za punoljetnost poklonio.,Otac mu je za punoljetnost poklonio crveni Ferrari.,nf,,,42,,,
,Timer frame,html.Frame,2_4_0,,,,,,,4075.1600000000035,186204,186205.32,186221.84,190297,190297,2024-07-30T18:45:58.133Z,190301.4,xHUlK1O4oq,incremental,anketa,6645cf40bc81b65c5faccf1d,participant,hcpib7dulz8rmo1n,,,,,Nešto se mu otac za punoljetnost poklonio.,Otac mu je za punoljetnost poklonio crveni Ferrari.,nf,,,42,,,
,stimulus,canvas.Screen,2_4_1_0,,,,,,response,3521.600000000006,190298,190296.16,190301.4,193823,193840,2024-07-30T18:46:01.676Z,193864.72,xHUlK1O4oq,incremental,anketa,6645cf40bc81b65c5faccf1d,participant,hcpib7dulz8rmo1n,,5,click @5,,Nešto se mu otac za punoljetnost poklonio.,Otac mu je za punoljetnost poklonio crveni Ferrari.,nf,,,42,,,
,Timer frame,html.Frame,2_4_1,,,,,,,3538.600000000006,190298,190296.16,190301.4,193840,193841,2024-07-30T18:46:01.677Z,193864.72,xHUlK1O4oq,incremental,anketa,6645cf40bc81b65c5faccf1d,participant,hcpib7dulz8rmo1n,,,,,Nešto se mu otac za punoljetnost poklonio.,Otac mu je za punoljetnost poklonio crveni Ferrari.,nf,,,42,,,
,Spremanje,canvas.Screen,2_4_2,,,,,,skipped,,193841,,,193840,193841,2024-07-30T18:46:01.677Z,193864.72,xHUlK1O4oq,incremental,anketa,6645cf40bc81b65c5faccf1d,participant,hcpib7dulz8rmo1n,,,,,Nešto se mu otac za punoljetnost poklonio.,Otac mu je za punoljetnost poklonio crveni Ferrari.,nf,,,42,,,
,Question form,html.Form,2_4_3,,,,,,skipped,,193841,,,193840,193842,2024-07-30T18:46:01.677Z,193864.72,xHUlK1O4oq,incremental,anketa,6645cf40bc81b65c5faccf1d,participant,hcpib7dulz8rmo1n,,,,,Nešto se mu otac za punoljetnost poklonio.,Otac mu je za punoljetnost poklonio crveni Ferrari.,nf,,,42,,,
,Answer indication,canvas.Screen,2_4_4,,,,,,skipped,,193846,,,193840,193847,2024-07-30T18:46:01.682Z,193864.72,xHUlK1O4oq,incremental,anketa,6645cf40bc81b65c5faccf1d,participant,hcpib7dulz8rmo1n,,,,,Nešto se mu otac za punoljetnost poklonio.,Otac mu je za punoljetnost poklonio crveni Ferrari.,nf,,,42,,,
,inter-stimulus,canvas.Screen,2_4_5,,,,,,response,755.2799999999988,193847,193848.06,193864.72,194620,194638,2024-07-30T18:46:02.474Z,194664.08,xHUlK1O4oq,incremental,anketa,6645cf40bc81b65c5faccf1d,participant,hcpib7dulz8rmo1n,,,mousedown,,Nešto se mu otac za punoljetnost poklonio.,Otac mu je za punoljetnost poklonio crveni Ferrari.,nf,,,42,,,
,Sequence,flow.Sequence,2_4,,,,,,completion,8398.160000000003,186204,186205.32,186221.84,194620,194639,2024-07-30T18:46:02.475Z,194664.08,xHUlK1O4oq,incremental,anketa,6645cf40bc81b65c5faccf1d,participant,hcpib7dulz8rmo1n,,,,,Nešto se mu otac za punoljetnost poklonio.,Otac mu je za punoljetnost poklonio crveni Ferrari.,nf,,,42,,,
,context,canvas.Screen,2_5_0_0,,,,,,response,6846.920000000013,194639,194647.42,194664.08,201511,201530,2024-07-30T18:46:09.366Z,201540.82,xHUlK1O4oq,incremental,anketa,6645cf40bc81b65c5faccf1d,participant,hcpib7dulz8rmo1n,,,click,,Što bismo voljeli da Drago napravi bez prigovora??,Voljeli bismo da Drago opere auto bez prigovora..,si,26,22,16,,,
,Timer frame,html.Frame,2_5_0,,,,,,,6865.920000000013,194639,194647.42,194664.08,201530,201531,2024-07-30T18:46:09.367Z,201540.82,xHUlK1O4oq,incremental,anketa,6645cf40bc81b65c5faccf1d,participant,hcpib7dulz8rmo1n,,,,,Što bismo voljeli da Drago napravi bez prigovora??,Voljeli bismo da Drago opere auto bez prigovora..,si,26,22,16,,,
,stimulus,canvas.Screen,2_5_1_0,,,,,,response,6532.179999999993,201532,201529.42,201540.82,208073,208089,2024-07-30T18:46:15.924Z,208101.34,xHUlK1O4oq,incremental,anketa,6645cf40bc81b65c5faccf1d,participant,hcpib7dulz8rmo1n,,7,click @7,,Što bismo voljeli da Drago napravi bez prigovora??,Voljeli bismo da Drago opere auto bez prigovora..,si,26,22,16,,,
,Timer frame,html.Frame,2_5_1,,,,,,,6548.179999999993,201532,201529.42,201540.82,208089,208089,2024-07-30T18:46:15.925Z,208101.34,xHUlK1O4oq,incremental,anketa,6645cf40bc81b65c5faccf1d,participant,hcpib7dulz8rmo1n,,,,,Što bismo voljeli da Drago napravi bez prigovora??,Voljeli bismo da Drago opere auto bez prigovora..,si,26,22,16,,,
,Spremanje,canvas.Screen,2_5_2,,,,,,skipped,,208089,,,208089,208089,2024-07-30T18:46:15.925Z,208101.34,xHUlK1O4oq,incremental,anketa,6645cf40bc81b65c5faccf1d,participant,hcpib7dulz8rmo1n,,,,,Što bismo voljeli da Drago napravi bez prigovora??,Voljeli bismo da Drago opere auto bez prigovora..,si,26,22,16,,,
,Question form,html.Form,2_5_3,,,,,,skipped,,208089,,,208089,208090,2024-07-30T18:46:15.925Z,208101.34,xHUlK1O4oq,incremental,anketa,6645cf40bc81b65c5faccf1d,participant,hcpib7dulz8rmo1n,,,,,Što bismo voljeli da Drago napravi bez prigovora??,Voljeli bismo da Drago opere auto bez prigovora..,si,26,22,16,,,
,Answer indication,canvas.Screen,2_5_4,,,,,,skipped,,208093,,,208089,208093,2024-07-30T18:46:15.930Z,208101.34,xHUlK1O4oq,incremental,anketa,6645cf40bc81b65c5faccf1d,participant,hcpib7dulz8rmo1n,,,,,Što bismo voljeli da Drago napravi bez prigovora??,Voljeli bismo da Drago opere auto bez prigovora..,si,26,22,16,,,
,inter-stimulus,canvas.Screen,2_5_5,,,,,,response,752.6600000000035,208093,208087.22,208101.34,208854,208870,2024-07-30T18:46:16.705Z,208884.02,xHUlK1O4oq,incremental,anketa,6645cf40bc81b65c5faccf1d,participant,hcpib7dulz8rmo1n,,,mousedown,,Što bismo voljeli da Drago napravi bez prigovora??,Voljeli bismo da Drago opere auto bez prigovora..,si,26,22,16,,,
,Sequence,flow.Sequence,2_5,,,,,,completion,14189.920000000013,194639,194647.42,194664.08,208854,208870,2024-07-30T18:46:16.706Z,208884.02,xHUlK1O4oq,incremental,anketa,6645cf40bc81b65c5faccf1d,participant,hcpib7dulz8rmo1n,,,,,Što bismo voljeli da Drago napravi bez prigovora??,Voljeli bismo da Drago opere auto bez prigovora..,si,26,22,16,,,
,context,canvas.Screen,2_6_0_0,,,,,,response,3704.9800000000105,208871,208867.36,208884.02,212589,212595,2024-07-30T18:46:20.431Z,212597.18,xHUlK1O4oq,incremental,anketa,6645cf40bc81b65c5faccf1d,participant,hcpib7dulz8rmo1n,,,keypress,,Koliko vidim dječaka kojem je ljubazni poštar poklonio bicikla??,Vidim dječaka kojem je ljubazni poštar poklonio dva bicikla..,cnp,38,38,10,,,2305
,Timer frame,html.Frame,2_6_0,,,,,,,3711.9800000000105,208871,208867.36,208884.02,212596,212596,2024-07-30T18:46:20.431Z,212597.18,xHUlK1O4oq,incremental,anketa,6645cf40bc81b65c5faccf1d,participant,hcpib7dulz8rmo1n,,,,,Koliko vidim dječaka kojem je ljubazni poštar poklonio bicikla??,Vidim dječaka kojem je ljubazni poštar poklonio dva bicikla..,cnp,38,38,10,,,2305
,stimulus,canvas.Screen,2_6_1_0,,,,,,response,2413.820000000007,212596,212592.3,212597.18,215011,215027,2024-07-30T18:46:22.862Z,215044.76,xHUlK1O4oq,incremental,anketa,6645cf40bc81b65c5faccf1d,participant,hcpib7dulz8rmo1n,,1,click @1,,Koliko vidim dječaka kojem je ljubazni poštar poklonio bicikla??,Vidim dječaka kojem je ljubazni poštar poklonio dva bicikla..,cnp,38,38,10,,,2305
,Timer frame,html.Frame,2_6_1,,,,,,,2429.820000000007,212596,212592.3,212597.18,215027,215027,2024-07-30T18:46:22.863Z,215044.76,xHUlK1O4oq,incremental,anketa,6645cf40bc81b65c5faccf1d,participant,hcpib7dulz8rmo1n,,,,,Koliko vidim dječaka kojem je ljubazni poštar poklonio bicikla??,Vidim dječaka kojem je ljubazni poštar poklonio dva bicikla..,cnp,38,38,10,,,2305
,Spremanje,canvas.Screen,2_6_2,,,,,,skipped,,215027,,,215027,215028,2024-07-30T18:46:22.863Z,215044.76,xHUlK1O4oq,incremental,anketa,6645cf40bc81b65c5faccf1d,participant,hcpib7dulz8rmo1n,,,,,Koliko vidim dječaka kojem je ljubazni poštar poklonio bicikla??,Vidim dječaka kojem je ljubazni poštar poklonio dva bicikla..,cnp,38,38,10,,,2305
,Question form,html.Form,2_6_3,,,,,,skipped,,215028,,,215027,215028,2024-07-30T18:46:22.863Z,215044.76,xHUlK1O4oq,incremental,anketa,6645cf40bc81b65c5faccf1d,participant,hcpib7dulz8rmo1n,,,,,Koliko vidim dječaka kojem je ljubazni poštar poklonio bicikla??,Vidim dječaka kojem je ljubazni poštar poklonio dva bicikla..,cnp,38,38,10,,,2305
,Answer indication,canvas.Screen,2_6_4,,,,,,skipped,,215035,,,215027,215035,2024-07-30T18:46:22.871Z,215044.76,xHUlK1O4oq,incremental,anketa,6645cf40bc81b65c5faccf1d,participant,hcpib7dulz8rmo1n,,,,,Koliko vidim dječaka kojem je ljubazni poštar poklonio bicikla??,Vidim dječaka kojem je ljubazni poštar poklonio dva bicikla..,cnp,38,38,10,,,2305
,inter-stimulus,canvas.Screen,2_6_5,,,,,,response,685.2399999999907,215036,215028.22,215044.76,215730,215753,2024-07-30T18:46:23.589Z,215777.46,xHUlK1O4oq,incremental,anketa,6645cf40bc81b65c5faccf1d,participant,hcpib7dulz8rmo1n,,,mousedown,,Koliko vidim dječaka kojem je ljubazni poštar poklonio bicikla??,Vidim dječaka kojem je ljubazni poštar poklonio dva bicikla..,cnp,38,38,10,,,2305
,Sequence,flow.Sequence,2_6,,,,,,completion,6845.9800000000105,208871,208867.36,208884.02,215730,215755,2024-07-30T18:46:23.590Z,215777.46,xHUlK1O4oq,incremental,anketa,6645cf40bc81b65c5faccf1d,participant,hcpib7dulz8rmo1n,,,,,Koliko vidim dječaka kojem je ljubazni poštar poklonio bicikla??,Vidim dječaka kojem je ljubazni poštar poklonio dva bicikla..,cnp,38,38,10,,,2305
,context,canvas.Screen,2_7_0_0,,,,,,response,6592.540000000008,215757,215760.8,215777.46,222370,222381,2024-07-30T18:46:30.217Z,222387.94,xHUlK1O4oq,incremental,anketa,6645cf40bc81b65c5faccf1d,participant,hcpib7dulz8rmo1n,,,click,,Vidimo plažu daleko od koje smo bili.,Vidimo plažu od koje smo bili daleko.,ai,,,24,,,
,Timer frame,html.Frame,2_7_0,,,,,,,6604.540000000008,215756,215760.8,215777.46,222382,222382,2024-07-30T18:46:30.218Z,222387.94,xHUlK1O4oq,incremental,anketa,6645cf40bc81b65c5faccf1d,participant,hcpib7dulz8rmo1n,,,,,Vidimo plažu daleko od koje smo bili.,Vidimo plažu od koje smo bili daleko.,ai,,,24,,,
,stimulus,canvas.Screen,2_7_1_0,,,,,,response,3217.0599999999977,222383,222380.26,222387.94,225605,225623,2024-07-30T18:46:33.458Z,225634.88,xHUlK1O4oq,incremental,anketa,6645cf40bc81b65c5faccf1d,participant,hcpib7dulz8rmo1n,,2,click @2,,Vidimo plažu daleko od koje smo bili.,Vidimo plažu od koje smo bili daleko.,ai,,,24,,,
,Timer frame,html.Frame,2_7_1,,,,,,,3235.0599999999977,222382,222380.26,222387.94,225623,225623,2024-07-30T18:46:33.459Z,225634.88,xHUlK1O4oq,incremental,anketa,6645cf40bc81b65c5faccf1d,participant,hcpib7dulz8rmo1n,,,,,Vidimo plažu daleko od koje smo bili.,Vidimo plažu od koje smo bili daleko.,ai,,,24,,,
,Spremanje,canvas.Screen,2_7_2,,,,,,skipped,,225624,,,225623,225624,2024-07-30T18:46:33.459Z,225634.88,xHUlK1O4oq,incremental,anketa,6645cf40bc81b65c5faccf1d,participant,hcpib7dulz8rmo1n,,,,,Vidimo plažu daleko od koje smo bili.,Vidimo plažu od koje smo bili daleko.,ai,,,24,,,
,Question form,html.Form,2_7_3,,,,,,skipped,,225624,,,225623,225625,2024-07-30T18:46:33.460Z,225634.88,xHUlK1O4oq,incremental,anketa,6645cf40bc81b65c5faccf1d,participant,hcpib7dulz8rmo1n,,,,,Vidimo plažu daleko od koje smo bili.,Vidimo plažu od koje smo bili daleko.,ai,,,24,,,
,Answer indication,canvas.Screen,2_7_4,,,,,,skipped,,225636,,,225623,225637,2024-07-30T18:46:33.472Z,225634.88,xHUlK1O4oq,incremental,anketa,6645cf40bc81b65c5faccf1d,participant,hcpib7dulz8rmo1n,,,,,Vidimo plažu daleko od koje smo bili.,Vidimo plažu od koje smo bili daleko.,ai,,,24,,,
,inter-stimulus,canvas.Screen,2_7_5,,,,,,response,705.1199999999953,225637,225620.7,225634.88,226340,226353,2024-07-30T18:46:34.189Z,226367.54,xHUlK1O4oq,incremental,anketa,6645cf40bc81b65c5faccf1d,participant,hcpib7dulz8rmo1n,,,mousedown,,Vidimo plažu daleko od koje smo bili.,Vidimo plažu od koje smo bili daleko.,ai,,,24,,,
,Sequence,flow.Sequence,2_7,,,,,,completion,10562.540000000008,215756,215760.8,215777.46,226340,226355,2024-07-30T18:46:34.190Z,226367.54,xHUlK1O4oq,incremental,anketa,6645cf40bc81b65c5faccf1d,participant,hcpib7dulz8rmo1n,,,,,Vidimo plažu daleko od koje smo bili.,Vidimo plažu od koje smo bili daleko.,ai,,,24,,,
,context,canvas.Screen,2_8_0_0,,,,,,response,3533.459999999992,226356,226350.88,226367.54,229901,229923,2024-07-30T18:46:37.759Z,229930.88,xHUlK1O4oq,incremental,anketa,6645cf40bc81b65c5faccf1d,participant,hcpib7dulz8rmo1n,,,click,,Čije sam cvijeće izašao iz kuće i zaboravio zaliti?,Izašao sam iz kuće i zaboravio zaliti majkino cvijeće.,csi,0,0,4,ZALITI MAJKINO CVIJEĆE; ZALITI MAMINO CVIJECE; ZALITI CVIJECE MAJKE; ZALITI MAJČINO CVIJEĆE; ZALITI CVIJEĆE MAJKE; ZALITI MAJKINO CVIJECE; MAJKINO CVIJEĆE ZALITI; MAJKINO CVIJECE ZALITI; ZALITI CVIJECE; ZALITI CVIJEĆE; ZALITI CVJEĆE; ZALITI CVJECE,Što sam zaboravio napraviti?,
,Timer frame,html.Frame,2_8_0,,,,,,,3555.459999999992,226355,226350.88,226367.54,229923,229924,2024-07-30T18:46:37.759Z,229930.88,xHUlK1O4oq,incremental,anketa,6645cf40bc81b65c5faccf1d,participant,hcpib7dulz8rmo1n,,,,,Čije sam cvijeće izašao iz kuće i zaboravio zaliti?,Izašao sam iz kuće i zaboravio zaliti majkino cvijeće.,csi,0,0,4,ZALITI MAJKINO CVIJEĆE; ZALITI MAMINO CVIJECE; ZALITI CVIJECE MAJKE; ZALITI MAJČINO CVIJEĆE; ZALITI CVIJEĆE MAJKE; ZALITI MAJKINO CVIJECE; MAJKINO CVIJEĆE ZALITI; MAJKINO CVIJECE ZALITI; ZALITI CVIJECE; ZALITI CVIJEĆE; ZALITI CVJEĆE; ZALITI CVJECE,Što sam zaboravio napraviti?,
,stimulus,canvas.Screen,2_8_1_0,,,,,,response,1987.1199999999953,229925,229921.4,229930.88,231918,231937,2024-07-30T18:46:39.772Z,231945.64,xHUlK1O4oq,incremental,anketa,6645cf40bc81b65c5faccf1d,participant,hcpib7dulz8rmo1n,,1,click @1,,Čije sam cvijeće izašao iz kuće i zaboravio zaliti?,Izašao sam iz kuće i zaboravio zaliti majkino cvijeće.,csi,0,0,4,ZALITI MAJKINO CVIJEĆE; ZALITI MAMINO CVIJECE; ZALITI CVIJECE MAJKE; ZALITI MAJČINO CVIJEĆE; ZALITI CVIJEĆE MAJKE; ZALITI MAJKINO CVIJECE; MAJKINO CVIJEĆE ZALITI; MAJKINO CVIJECE ZALITI; ZALITI CVIJECE; ZALITI CVIJEĆE; ZALITI CVJEĆE; ZALITI CVJECE,Što sam zaboravio napraviti?,
,Timer frame,html.Frame,2_8_1,,,,,,,2006.1199999999953,229924,229921.4,229930.88,231937,231937,2024-07-30T18:46:39.773Z,231945.64,xHUlK1O4oq,incremental,anketa,6645cf40bc81b65c5faccf1d,participant,hcpib7dulz8rmo1n,,,,,Čije sam cvijeće izašao iz kuće i zaboravio zaliti?,Izašao sam iz kuće i zaboravio zaliti majkino cvijeće.,csi,0,0,4,ZALITI MAJKINO CVIJEĆE; ZALITI MAMINO CVIJECE; ZALITI CVIJECE MAJKE; ZALITI MAJČINO CVIJEĆE; ZALITI CVIJEĆE MAJKE; ZALITI MAJKINO CVIJECE; MAJKINO CVIJEĆE ZALITI; MAJKINO CVIJECE ZALITI; ZALITI CVIJECE; ZALITI CVIJEĆE; ZALITI CVJEĆE; ZALITI CVJECE,Što sam zaboravio napraviti?,
,Spremanje,canvas.Screen,2_8_2,,,,,,response,675.359999999986,231938,231935.24,231945.64,232621,232639,2024-07-30T18:46:40.475Z,232661.5,xHUlK1O4oq,incremental,anketa,6645cf40bc81b65c5faccf1d,participant,hcpib7dulz8rmo1n,,,mousedown,,Čije sam cvijeće izašao iz kuće i zaboravio zaliti?,Izašao sam iz kuće i zaboravio zaliti majkino cvijeće.,csi,0,0,4,ZALITI MAJKINO CVIJEĆE; ZALITI MAMINO CVIJECE; ZALITI CVIJECE MAJKE; ZALITI MAJČINO CVIJEĆE; ZALITI CVIJEĆE MAJKE; ZALITI MAJKINO CVIJECE; MAJKINO CVIJEĆE ZALITI; MAJKINO CVIJECE ZALITI; ZALITI CVIJECE; ZALITI CVIJEĆE; ZALITI CVJEĆE; ZALITI CVJECE,Što sam zaboravio napraviti?,