meta,sender,sender_type,sender_id,age,education,croatian-knowledge,occupation,,ended_on,duration,time_run,time_render,time_show,time_end,time_commit,timestamp,time_switch,openLabId,type,task,project,status,code,confirmationCode,response,response_action,answer_true,stimulus,context,island_type,transfer_s,transfer_c,id,right_answer,question,change_date
"{""labjs_version"":""20.2.4"",""labjs_build"":{""flavor"":""production"",""commit"":""f5b4a49f956347addd546a832a3327688c2c0fef""},""location"":""https://open-lab.online/test/anketa/666d43ecd705844101ef3e9a"",""userAgent"":""Mozilla/5.0 (Windows NT 10.0; Win64; x64) AppleWebKit/537.36 (KHTML, like Gecko) Chrome/126.0.0.0 Safari/537.36"",""platform"":""Win32"",""language"":""ru-RU"",""locale"":""ru"",""timeZone"":""Europe/Moscow"",""timezoneOffset"":-180,""screen_width"":1536,""screen_height"":864,""scroll_width"":1536,""scroll_height"":690,""window_innerWidth"":1536,""window_innerHeight"":738,""devicePixelRatio"":1.25}",Demography form,html.Form,0,49,highschool,speak-fluently,Ekonomista. Zagreb,,form submission,58832.09999990463,1410.9000000953674,1417.822,1446.5,60278.59999990463,60279,2024-06-15T07:35:04.072Z,60290.7,z_ZvPU2GEy,incremental,anketa,6645cf40bc81b65c5faccf1d,participant,hcpibcu9lxfsxbpl,938311,,,,,,,,,,,,
,context,canvas.Screen,1_0,,,,,,response,18015.499999809268,60279.2999997139,60273.824,60290.7,78306.19999980927,78308.59999990463,2024-06-15T07:35:22.101Z,78322.4,z_ZvPU2GEy,incremental,anketa,6645cf40bc81b65c5faccf1d,participant,hcpibcu9lxfsxbpl,,,click,,,,,,,,,,
"{""labjs_version"":""20.2.4"",""labjs_build"":{""flavor"":""production"",""commit"":""f5b4a49f956347addd546a832a3327688c2c0fef""},""location"":""https://open-lab.online/test/anketa/666d43ecd705844101ef3e9a"",""userAgent"":""Mozilla/5.0 (Windows NT 10.0; Win64; x64) AppleWebKit/537.36 (KHTML, like Gecko) Chrome/126.0.0.0 Safari/537.36"",""platform"":""Win32"",""language"":""ru-RU"",""locale"":""ru"",""timeZone"":""Europe/Moscow"",""timezoneOffset"":-180,""screen_width"":1536,""screen_height"":864,""scroll_width"":1536,""scroll_height"":690,""window_innerWidth"":1536,""window_innerHeight"":738,""devicePixelRatio"":1.25}",Demography form,html.Form,0,49,highschool,speak-fluently,Ekonomista. Zagreb,,form submission,14357.900000095367,857.4000000953674,858.032,886.5,15244.400000095367,15244.599999904633,2024-06-15T07:36:00.098Z,15261.8,z_ZvPU2GEy,incremental,anketa,6645cf40bc81b65c5faccf1d,participant,hcpibcu9lxfsxbpl,938311,,,,,,,,,,,,
,context,canvas.Screen,1_0,,,,,,response,7511.200000000001,15244.900000095367,15232.422,15261.8,22773,22775.299999713898,2024-06-15T07:36:07.628Z,22792.7,z_ZvPU2GEy,incremental,anketa,6645cf40bc81b65c5faccf1d,participant,hcpibcu9lxfsxbpl,,,click,,,,,,,,,,
,stimulus,canvas.Screen,1_1,,,,,,response,34140.49999980927,22775.5,22774.692,22792.7,56933.199999809265,56935.699999809265,2024-06-15T07:36:41.789Z,56949,z_ZvPU2GEy,incremental,anketa,6645cf40bc81b65c5faccf1d,participant,hcpibcu9lxfsxbpl,,4,click @4,,,,,,,,,,
,inter-stimulus,canvas.Screen,1_2,,,,,,response,17660.199999809265,56935.90000009537,56930.392,56949,74609.19999980927,74610.19999980927,2024-06-15T07:36:59.463Z,74636.6,z_ZvPU2GEy,incremental,anketa,6645cf40bc81b65c5faccf1d,participant,hcpibcu9lxfsxbpl,,,mousedown,,,,,,,,,,
,context,canvas.Screen,1_3,,,,,,response,7223.699999713892,74610.2999997139,74605.1,74636.6,81860.2999997139,81861.19999980927,2024-06-15T07:37:06.714Z,81887,z_ZvPU2GEy,incremental,anketa,6645cf40bc81b65c5faccf1d,participant,hcpibcu9lxfsxbpl,,,click,,,,,,,,,,
,stimulus,canvas.Screen,1_4,,,,,,response,9453.599999904633,81861.19999980927,81855.3,81887,91340.59999990463,91341.59999990463,2024-06-15T07:37:16.195Z,91355.4,z_ZvPU2GEy,incremental,anketa,6645cf40bc81b65c5faccf1d,participant,hcpibcu9lxfsxbpl,,7,click @7,,,,,,,,,,
,inter-stimulus,canvas.Screen,1_5,,,,,,response,53334.29999980927,91341.7999997139,91339.224,91355.4,144689.69999980927,144692.2999997139,2024-06-15T07:38:09.546Z,144730.4,z_ZvPU2GEy,incremental,anketa,6645cf40bc81b65c5faccf1d,participant,hcpibcu9lxfsxbpl,,,mousedown,,,,,,,,,,
,context,canvas.Screen,1_6,,,,,,response,6961.8999997139035,144692.7999997139,144699,144730.4,151692.2999997139,151693.19999980927,2024-06-15T07:38:16.547Z,151699.3,z_ZvPU2GEy,incremental,anketa,6645cf40bc81b65c5faccf1d,participant,hcpibcu9lxfsxbpl,,,click,,,,,,,,,,
,stimulus,canvas.Screen,1_7_0,,,,,,response,1261.4999997139093,151695,151692.674,151699.3,152960.7999997139,152961.7999997139,2024-06-15T07:38:17.816Z,152980.3,z_ZvPU2GEy,incremental,anketa,6645cf40bc81b65c5faccf1d,participant,hcpibcu9lxfsxbpl,,7,click @7,,,,,,,,,,
,Timer frame,html.Frame,1_7,,,,,,,1262.600000095379,151693.2999997139,151692.674,151699.3,152961.90000009537,152962.09999990463,2024-06-15T07:38:17.816Z,152980.3,z_ZvPU2GEy,incremental,anketa,6645cf40bc81b65c5faccf1d,participant,hcpibcu9lxfsxbpl,,,,,,,,,,,,,
,Screen,canvas.Screen,1_8,,,,,,response,7411.799999904644,152962.19999980927,152951.132,152980.3,160392.09999990463,160393.19999980927,2024-06-15T07:38:25.247Z,160417.8,z_ZvPU2GEy,incremental,anketa,6645cf40bc81b65c5faccf1d,participant,hcpibcu9lxfsxbpl,,,mousedown,,,,,,,,,,
"{""labjs_version"":""20.2.4"",""labjs_build"":{""flavor"":""production"",""commit"":""f5b4a49f956347addd546a832a3327688c2c0fef""},""location"":""https://open-lab.online/test/anketa/666d43ecd705844101ef3e9a"",""userAgent"":""Mozilla/5.0 (Windows NT 10.0; Win64; x64) AppleWebKit/537.36 (KHTML, like Gecko) Chrome/126.0.0.0 Safari/537.36"",""platform"":""Win32"",""language"":""ru-RU"",""locale"":""ru"",""timeZone"":""Europe/Moscow"",""timezoneOffset"":-180,""screen_width"":1536,""screen_height"":864,""scroll_width"":1536,""scroll_height"":690,""window_innerWidth"":1536,""window_innerHeight"":738,""devicePixelRatio"":1.25}",Demography form,html.Form,0,49,highschool,speak-fluently,Ekonomista. Zagreb,,form submission,27431.099999904633,978,986.1,1018,28449.099999904633,28449.5,2024-06-15T07:47:34.361Z,28455,z_ZvPU2GEy,incremental,anketa,6645cf40bc81b65c5faccf1d,participant,hcpibcu9lxfsxbpl,938311,,,,,,,,,,,,
,context,canvas.Screen,1_0,,,,,,response,8080.599999904633,28449.700000286102,28448.894,28455,36535.59999990463,36537.90000009537,2024-06-15T07:47:42.449Z,36548.7,z_ZvPU2GEy,incremental,anketa,6645cf40bc81b65c5faccf1d,participant,hcpibcu9lxfsxbpl,,,click,,,,,,,,,,
,stimulus,canvas.Screen,1_1,,,,,,response,4649.100000190738,36538,36535.056,36548.7,41197.800000190735,41200.40000009537,2024-06-15T07:47:47.112Z,41205.1,z_ZvPU2GEy,incremental,anketa,6645cf40bc81b65c5faccf1d,participant,hcpibcu9lxfsxbpl,,7,click @7,,,,,,,,,,
,inter-stimulus,canvas.Screen,1_2,,,,,,response,6021.200000190736,41200.5,41193.188,41205.1,47226.300000190735,47227.40000009537,2024-06-15T07:47:53.139Z,47236.5,z_ZvPU2GEy,incremental,anketa,6645cf40bc81b65c5faccf1d,participant,hcpibcu9lxfsxbpl,,,mousedown,,,,,,,,,,
,context,canvas.Screen,1_3,,,,,,response,5736.800000190735,47227.5,47223.798,47236.5,52973.300000190735,52974.2000002861,2024-06-15T07:47:58.886Z,52986.4,z_ZvPU2GEy,incremental,anketa,6645cf40bc81b65c5faccf1d,participant,hcpibcu9lxfsxbpl,,,click,,,,,,,,,,
,stimulus,canvas.Screen,1_4,,,,,,response,1781.000000095366,52974.300000190735,52967.982,52986.4,54767.40000009537,54768.40000009537,2024-06-15T07:48:00.680Z,54799.3,z_ZvPU2GEy,incremental,anketa,6645cf40bc81b65c5faccf1d,participant,hcpibcu9lxfsxbpl,,7,click @7,,,,,,,,,,
,inter-stimulus,canvas.Screen,1_5,,,,,,response,16780.500000190732,54768.5,54767.79,54799.3,71579.80000019073,71582.7000002861,2024-06-15T07:48:17.494Z,71611.2,z_ZvPU2GEy,incremental,anketa,6645cf40bc81b65c5faccf1d,participant,hcpibcu9lxfsxbpl,,,mousedown,,,,,,,,,,
,context,canvas.Screen,1_6,,,,,,response,3569.600000190738,71583.09999990463,71580,71611.2,75180.80000019073,75181.7000002861,2024-06-15T07:48:21.093Z,75204.9,z_ZvPU2GEy,incremental,anketa,6645cf40bc81b65c5faccf1d,participant,hcpibcu9lxfsxbpl,,,click,,,,,,,,,,
,stimulus,canvas.Screen,1_7_0,,,,,,response,5137.400000190741,75183.5,75173.7,75204.9,80342.30000019073,80344.59999990463,2024-06-15T07:48:26.256Z,80361.7,z_ZvPU2GEy,incremental,anketa,6645cf40bc81b65c5faccf1d,participant,hcpibcu9lxfsxbpl,,7,click @7,,,,,,,,,,
,Timer frame,html.Frame,1_7,,,,,,,5139.800000286108,75181.80000019073,75173.7,75204.9,80344.7000002861,80345.09999990463,2024-06-15T07:48:26.257Z,80361.7,z_ZvPU2GEy,incremental,anketa,6645cf40bc81b65c5faccf1d,participant,hcpibcu9lxfsxbpl,,,,,,,,,,,,,
,Screen,canvas.Screen,1_8,,,,,,response,2657.2000000953703,80345.30000019073,80332.032,80361.7,83018.90000009537,83021.5,2024-06-15T07:48:28.933Z,83048.7,z_ZvPU2GEy,incremental,anketa,6645cf40bc81b65c5faccf1d,participant,hcpibcu9lxfsxbpl,,,mousedown,,,,,,,,,,
,Question form,html.Form,1_9,,,,,,form submission,9974.20000009537,83021.80000019073,83017.4,83048.7,93022.90000009537,93023,2024-06-15T07:48:38.935Z,93048.7,z_ZvPU2GEy,incremental,anketa,6645cf40bc81b65c5faccf1d,participant,hcpibcu9lxfsxbpl,,,,zrele,,,,,,,,,
,Screen,canvas.Screen,1_10,,,,,,response,6603.100000190738,93024.09999990463,93018.4,93048.7,99651.80000019073,99654.40000009537,2024-06-15T07:48:45.566Z,99673.8,z_ZvPU2GEy,incremental,anketa,6645cf40bc81b65c5faccf1d,participant,hcpibcu9lxfsxbpl,,,mousedown,,,,,,,,,,
,inter-stimulus,canvas.Screen,1_11,,,,,,response,6233.400000286099,99654.59999990463,99644.492,99673.8,105907.2000002861,105908.30000019073,2024-06-15T07:48:51.820Z,105923.7,z_ZvPU2GEy,incremental,anketa,6645cf40bc81b65c5faccf1d,participant,hcpibcu9lxfsxbpl,,,mousedown,,,,,,,,,,
,First stimuli,flow.Sequence,1,,,,,,completion,77452.2000002861,28449.700000286102,28448.894,28455,105907.2000002861,105909.7000002861,2024-06-15T07:48:51.821Z,105923.7,z_ZvPU2GEy,incremental,anketa,6645cf40bc81b65c5faccf1d,participant,hcpibcu9lxfsxbpl,,,,,,,,,,,,,
,context,canvas.Screen,2_0_0_0,,,,,,timeout,11000,105909.90000009537,105894.522,105923.7,116892.4,116897.09999990463,2024-06-15T07:49:02.809Z,116923.7,z_ZvPU2GEy,incremental,anketa,6645cf40bc81b65c5faccf1d,participant,hcpibcu9lxfsxbpl,,,,,Kakav sam vidio barku u oceanu?,Vidio sam bijelu barku u oceanu.,nf,,,41,,,2305
,Timer frame,html.Frame,2_0_0,,,,,,,10973.600000190738,105909.80000019073,105894.522,105923.7,116897.30000019073,116897.90000009537,2024-06-15T07:49:02.809Z,116954.9,z_ZvPU2GEy,incremental,anketa,6645cf40bc81b65c5faccf1d,participant,hcpibcu9lxfsxbpl,,,,,Kakav sam vidio barku u oceanu?,Vidio sam bijelu barku u oceanu.,nf,,,41,,,2305
,stimulus,canvas.Screen,2_0_1_0,,,,,,timeout,11000,116898,116923.7,116954.9,127923.8,127924.80000019073,2024-06-15T07:49:13.837Z,127954.9,z_ZvPU2GEy,incremental,anketa,6645cf40bc81b65c5faccf1d,participant,hcpibcu9lxfsxbpl,,,,,Kakav sam vidio barku u oceanu?,Vidio sam bijelu barku u oceanu.,nf,,,41,,,2305
,Timer frame,html.Frame,2_0_1,,,,,,,10970.100000000006,116897.90000009537,116923.7,116954.9,127925,127926,2024-06-15T07:49:13.838Z,127986.3,z_ZvPU2GEy,incremental,anketa,6645cf40bc81b65c5faccf1d,participant,hcpibcu9lxfsxbpl,,,,,Kakav sam vidio barku u oceanu?,Vidio sam bijelu barku u oceanu.,nf,,,41,,,2305
,Spremanje,canvas.Screen,2_0_2,,,,,,skipped,,127926.2000002861,,,127925,127926.40000009537,2024-06-15T07:49:13.838Z,127986.3,z_ZvPU2GEy,incremental,anketa,6645cf40bc81b65c5faccf1d,participant,hcpibcu9lxfsxbpl,,,,,Kakav sam vidio barku u oceanu?,Vidio sam bijelu barku u oceanu.,nf,,,41,,,2305
,Question form,html.Form,2_0_3,,,,,,skipped,,127926.59999990463,,,127925,127926.7000002861,2024-06-15T07:49:13.839Z,127986.3,z_ZvPU2GEy,incremental,anketa,6645cf40bc81b65c5faccf1d,participant,hcpibcu9lxfsxbpl,,,,,Kakav sam vidio barku u oceanu?,Vidio sam bijelu barku u oceanu.,nf,,,41,,,2305
,Answer indication,canvas.Screen,2_0_4,,,,,,skipped,,127929,,,127925,127929.2000002861,2024-06-15T07:49:13.841Z,127986.3,z_ZvPU2GEy,incremental,anketa,6645cf40bc81b65c5faccf1d,participant,hcpibcu9lxfsxbpl,,,,,Kakav sam vidio barku u oceanu?,Vidio sam bijelu barku u oceanu.,nf,,,41,,,2305
,inter-stimulus,canvas.Screen,2_0_5,,,,,,response,1392.7999999046297,127929.30000019073,127954.9,127986.3,129379.09999990463,129380.09999990463,2024-06-15T07:49:15.292Z,129423.7,z_ZvPU2GEy,incremental,anketa,6645cf40bc81b65c5faccf1d,participant,hcpibcu9lxfsxbpl,,,mousedown,,Kakav sam vidio barku u oceanu?,Vidio sam bijelu barku u oceanu.,nf,,,41,,,2305
,Sequence,flow.Sequence,2_0,,,,,,completion,23455.399999904635,105909.80000019073,105894.522,105923.7,129379.09999990463,129380.2000002861,2024-06-15T07:49:15.292Z,129423.7,z_ZvPU2GEy,incremental,anketa,6645cf40bc81b65c5faccf1d,participant,hcpibcu9lxfsxbpl,,,,,Kakav sam vidio barku u oceanu?,Vidio sam bijelu barku u oceanu.,nf,,,41,,,2305
,context,canvas.Screen,2_1_0_0,,,,,,response,6867.800000000003,129380.40000009537,129392.4,129423.7,136291.5,136292.40000009537,2024-06-15T07:49:22.204Z,136330.5,z_ZvPU2GEy,incremental,anketa,6645cf40bc81b65c5faccf1d,participant,hcpibcu9lxfsxbpl,,,click,,"Što je kupio tata, i spremila je majka?","Tata je kupio meso, a majka je spremila salatu.",csi,,,7,,,
,Timer frame,html.Frame,2_1_0,,,,,,,6868.800000000003,129380.30000019073,129392.4,129423.7,136292.5,136292.90000009537,2024-06-15T07:49:22.205Z,136330.5,z_ZvPU2GEy,incremental,anketa,6645cf40bc81b65c5faccf1d,participant,hcpibcu9lxfsxbpl,,,,,"Što je kupio tata, i spremila je majka?","Tata je kupio meso, a majka je spremila salatu.",csi,,,7,,,
,stimulus,canvas.Screen,2_1_1_0,,,,,,response,4882,136293.09999990463,136298.7,136330.5,141212.5,141213.40000009537,2024-06-15T07:49:27.125Z,141236.5,z_ZvPU2GEy,incremental,anketa,6645cf40bc81b65c5faccf1d,participant,hcpibcu9lxfsxbpl,,7,click @7,,"Što je kupio tata, i spremila je majka?","Tata je kupio meso, a majka je spremila salatu.",csi,,,7,,,
,Timer frame,html.Frame,2_1_1,,,,,,,4883,136293,136298.7,136330.5,141213.5,141213.59999990463,2024-06-15T07:49:27.125Z,141236.5,z_ZvPU2GEy,incremental,anketa,6645cf40bc81b65c5faccf1d,participant,hcpibcu9lxfsxbpl,,,,,"Što je kupio tata, i spremila je majka?","Tata je kupio meso, a majka je spremila salatu.",csi,,,7,,,
,Spremanje,canvas.Screen,2_1_2,,,,,,skipped,,141213.59999990463,,,141213.5,141213.7000002861,2024-06-15T07:49:27.126Z,141236.5,z_ZvPU2GEy,incremental,anketa,6645cf40bc81b65c5faccf1d,participant,hcpibcu9lxfsxbpl,,,,,"Što je kupio tata, i spremila je majka?","Tata je kupio meso, a majka je spremila salatu.",csi,,,7,,,
,Question form,html.Form,2_1_3,,,,,,skipped,,141213.80000019073,,,141213.5,141213.90000009537,2024-06-15T07:49:27.126Z,141236.5,z_ZvPU2GEy,incremental,anketa,6645cf40bc81b65c5faccf1d,participant,hcpibcu9lxfsxbpl,,,,,"Što je kupio tata, i spremila je majka?","Tata je kupio meso, a majka je spremila salatu.",csi,,,7,,,
,Answer indication,canvas.Screen,2_1_4,,,,,,skipped,,141214.80000019073,,,141213.5,141214.90000009537,2024-06-15T07:49:27.127Z,141236.5,z_ZvPU2GEy,incremental,anketa,6645cf40bc81b65c5faccf1d,participant,hcpibcu9lxfsxbpl,,,,,"Što je kupio tata, i spremila je majka?","Tata je kupio meso, a majka je spremila salatu.",csi,,,7,,,
,inter-stimulus,canvas.Screen,2_1_5,,,,,,response,17172.900000095367,141215,141205,141236.5,158409.40000009537,158410.59999990463,2024-06-15T07:49:44.322Z,158423.6,z_ZvPU2GEy,incremental,anketa,6645cf40bc81b65c5faccf1d,participant,hcpibcu9lxfsxbpl,,,mousedown,,"Što je kupio tata, i spremila je majka?","Tata je kupio meso, a majka je spremila salatu.",csi,,,7,,,
,Sequence,flow.Sequence,2_1,,,,,,completion,28985.70000009537,129380.30000019073,129392.4,129423.7,158409.40000009537,158410.7000002861,2024-06-15T07:49:44.323Z,158423.6,z_ZvPU2GEy,incremental,anketa,6645cf40bc81b65c5faccf1d,participant,hcpibcu9lxfsxbpl,,,,,"Što je kupio tata, i spremila je majka?","Tata je kupio meso, a majka je spremila salatu.",csi,,,7,,,
,context,canvas.Screen,2_2_0_0,,,,,,response,7946.899999999994,158410.90000009537,158398.786,158423.6,166370.5,166371.30000019073,2024-06-15T07:49:52.283Z,166392.2,z_ZvPU2GEy,incremental,anketa,6645cf40bc81b65c5faccf1d,participant,hcpibcu9lxfsxbpl,,,click,,"Koliko čega Luka je zaboravio, on mi je posudio?","Luka je zaboravio, koliko mi je novca posudio.",ai,,,28,,,
,Timer frame,html.Frame,2_2_0,,,,,,,7947.800000095362,158410.80000019073,158398.786,158423.6,166371.40000009537,166371.40000009537,2024-06-15T07:49:52.283Z,166392.2,z_ZvPU2GEy,incremental,anketa,6645cf40bc81b65c5faccf1d,participant,hcpibcu9lxfsxbpl,,,,,"Koliko čega Luka je zaboravio, on mi je posudio?","Luka je zaboravio, koliko mi je novca posudio.",ai,,,28,,,
,stimulus,canvas.Screen,2_2_1_0,,,,,,timeout,11000.299999999988,166371.59999990463,166363.332,166392.2,177361.2,177362.5,2024-06-15T07:50:03.274Z,177392.5,z_ZvPU2GEy,incremental,anketa,6645cf40bc81b65c5faccf1d,participant,hcpibcu9lxfsxbpl,,,,,"Koliko čega Luka je zaboravio, on mi je posudio?","Luka je zaboravio, koliko mi je novca posudio.",ai,,,28,,,
,Timer frame,html.Frame,2_2_1,,,,,,,10970.399999904621,166371.5,166363.332,166392.2,177362.59999990463,177362.80000019073,2024-06-15T07:50:03.275Z,177423.5,z_ZvPU2GEy,incremental,anketa,6645cf40bc81b65c5faccf1d,participant,hcpibcu9lxfsxbpl,,,,,"Koliko čega Luka je zaboravio, on mi je posudio?","Luka je zaboravio, koliko mi je novca posudio.",ai,,,28,,,
,Spremanje,canvas.Screen,2_2_2,,,,,,skipped,,177362.90000009537,,,177362.59999990463,177363,2024-06-15T07:50:03.275Z,177423.5,z_ZvPU2GEy,incremental,anketa,6645cf40bc81b65c5faccf1d,participant,hcpibcu9lxfsxbpl,,,,,"Koliko čega Luka je zaboravio, on mi je posudio?","Luka je zaboravio, koliko mi je novca posudio.",ai,,,28,,,
,Question form,html.Form,2_2_3,,,,,,skipped,,177363.2000002861,,,177362.59999990463,177363.30000019073,2024-06-15T07:50:03.275Z,177423.5,z_ZvPU2GEy,incremental,anketa,6645cf40bc81b65c5faccf1d,participant,hcpibcu9lxfsxbpl,,,,,"Koliko čega Luka je zaboravio, on mi je posudio?","Luka je zaboravio, koliko mi je novca posudio.",ai,,,28,,,
,Answer indication,canvas.Screen,2_2_4,,,,,,skipped,,177365,,,177362.59999990463,177365.30000019073,2024-06-15T07:50:03.277Z,177423.5,z_ZvPU2GEy,incremental,anketa,6645cf40bc81b65c5faccf1d,participant,hcpibcu9lxfsxbpl,,,,,"Koliko čega Luka je zaboravio, on mi je posudio?","Luka je zaboravio, koliko mi je novca posudio.",ai,,,28,,,
"{""labjs_version"":""20.2.4"",""labjs_build"":{""flavor"":""production"",""commit"":""f5b4a49f956347addd546a832a3327688c2c0fef""},""location"":""https://open-lab.online/test/anketa/666d43ecd705844101ef3e9a"",""userAgent"":""Mozilla/5.0 (Windows NT 10.0; Win64; x64) AppleWebKit/537.36 (KHTML, like Gecko) Chrome/126.0.0.0 Safari/537.36"",""platform"":""Win32"",""language"":""ru-RU"",""locale"":""ru"",""timeZone"":""Europe/Moscow"",""timezoneOffset"":-180,""screen_width"":1536,""screen_height"":864,""scroll_width"":1536,""scroll_height"":690,""window_innerWidth"":1536,""window_innerHeight"":738,""devicePixelRatio"":1.25}",Demography form,html.Form,0,49,highschool,speak-fluently,Ekonomista. Zagreb,,form submission,11600.900000095367,885.9000000953674,899.1,930,12530.900000095367,12531.200000286102,2024-06-15T07:50:26.343Z,12555.2,z_ZvPU2GEy,incremental,anketa,6645cf40bc81b65c5faccf1d,participant,hcpibcu9lxfsxbpl,938311,,,,,,,,,,,,
,context,canvas.Screen,1_0,,,,,,response,8561.899999904632,12531.400000095367,12528.454,12555.2,21117.099999904633,21119.400000095367,2024-06-15T07:50:34.931Z,21148.6,z_ZvPU2GEy,incremental,anketa,6645cf40bc81b65c5faccf1d,participant,hcpibcu9lxfsxbpl,,,click,,,,,,,,,,
,stimulus,canvas.Screen,1_1,,,,,,response,1432.9000000000015,21119.5,21117.6,21148.6,22581.5,22582.599999904633,2024-06-15T07:50:36.394Z,22586.8,z_ZvPU2GEy,incremental,anketa,6645cf40bc81b65c5faccf1d,participant,hcpibcu9lxfsxbpl,,7,click @7,,,,,,,,,,
,inter-stimulus,canvas.Screen,1_2,,,,,,response,6390.799999904633,22582.700000286102,22571.556,22586.8,28977.599999904633,28978.300000190735,2024-06-15T07:50:42.790Z,29023.8,z_ZvPU2GEy,incremental,anketa,6645cf40bc81b65c5faccf1d,participant,hcpibcu9lxfsxbpl,,,mousedown,,,,,,,,,,
,context,canvas.Screen,1_3,,,,,,response,957.900000286103,28978.400000095367,28992.5,29023.8,29981.700000286102,29982.5,2024-06-15T07:50:43.794Z,29993.1,z_ZvPU2GEy,incremental,anketa,6645cf40bc81b65c5faccf1d,participant,hcpibcu9lxfsxbpl,,,click,,,,,,,,,,
,stimulus,canvas.Screen,1_4,,,,,,response,1132.300000095369,29982.700000286102,29973.762,29993.1,31125.400000095367,31126.300000190735,2024-06-15T07:50:44.938Z,31148.7,z_ZvPU2GEy,incremental,anketa,6645cf40bc81b65c5faccf1d,participant,hcpibcu9lxfsxbpl,,7,click @7,,,,,,,,,,
,inter-stimulus,canvas.Screen,1_5,,,,,,response,8406.200000095367,31126.400000095367,31126.518,31148.7,39554.90000009537,39556.40000009537,2024-06-15T07:50:53.368Z,39618.1,z_ZvPU2GEy,incremental,anketa,6645cf40bc81b65c5faccf1d,participant,hcpibcu9lxfsxbpl,,,mousedown,,,,,,,,,,
,context,canvas.Screen,1_6,,,,,,response,1658.999999904634,39556.59999990463,39586.2,39618.1,41277.09999990463,41278,2024-06-15T07:50:55.090Z,41305,z_ZvPU2GEy,incremental,anketa,6645cf40bc81b65c5faccf1d,participant,hcpibcu9lxfsxbpl,,,click,,,,,,,,,,
,stimulus,canvas.Screen,1_7_0,,,,,,response,4845.700000286102,41279.7000002861,41273.79,41305,46150.7000002861,46153,2024-06-15T07:50:59.965Z,46179.7,z_ZvPU2GEy,incremental,anketa,6645cf40bc81b65c5faccf1d,participant,hcpibcu9lxfsxbpl,,7,click @7,,,,,,,,,,
,Timer frame,html.Frame,1_7,,,,,,,4848.099999904633,41278.09999990463,41273.79,41305,46153.09999990463,46153.59999990463,2024-06-15T07:50:59.965Z,46179.7,z_ZvPU2GEy,incremental,anketa,6645cf40bc81b65c5faccf1d,participant,hcpibcu9lxfsxbpl,,,,,,,,,,,,,
,Screen,canvas.Screen,1_8,,,,,,response,2366.3999999046355,46153.7000002861,46148.69,46179.7,48546.09999990463,48547.2000002861,2024-06-15T07:51:02.359Z,48586.2,z_ZvPU2GEy,incremental,anketa,6645cf40bc81b65c5faccf1d,participant,hcpibcu9lxfsxbpl,,,mousedown,,,,,,,,,,
,Question form,html.Form,1_9,,,,,,form submission,7213.3999999046355,48547.300000190735,48554.9,48586.2,55799.59999990463,55799.90000009537,2024-06-15T07:51:09.612Z,55804.7,z_ZvPU2GEy,incremental,anketa,6645cf40bc81b65c5faccf1d,participant,hcpibcu9lxfsxbpl,,,,zrele,,,,,,,,,
,Screen,canvas.Screen,1_10,,,,,,response,1862.6000001907378,55800.90000009537,55798.594,55804.7,57667.300000190735,57668.09999990463,2024-06-15T07:51:11.480Z,57680.1,z_ZvPU2GEy,incremental,anketa,6645cf40bc81b65c5faccf1d,participant,hcpibcu9lxfsxbpl,,,mousedown,,,,,,,,,,
,inter-stimulus,canvas.Screen,1_11,,,,,,response,1755.9000000000015,57668.2000002861,57663.224,57680.1,59436,59438.09999990463,2024-06-15T07:51:13.250Z,59461.2,z_ZvPU2GEy,incremental,anketa,6645cf40bc81b65c5faccf1d,participant,hcpibcu9lxfsxbpl,,,mousedown,,,,,,,,,,
,First stimuli,flow.Sequence,1,,,,,,completion,46880.8,12531.400000095367,12528.454,12555.2,59436,59441.800000190735,2024-06-15T07:51:13.254Z,59461.2,z_ZvPU2GEy,incremental,anketa,6645cf40bc81b65c5faccf1d,participant,hcpibcu9lxfsxbpl,,,,,,,,,,,,,
,context,canvas.Screen,2_0_0_0,,,,,,response,3895.500000286105,59442,59430.1,59461.2,63356.7000002861,63357.800000190735,2024-06-15T07:51:17.170Z,63398.7,z_ZvPU2GEy,incremental,anketa,6645cf40bc81b65c5faccf1d,participant,hcpibcu9lxfsxbpl,,,click,,Što želiš da pronaći nije bilo teško?,Pronaći apoteku nije bilo teško.,si,,,14,,,2305
,Timer frame,html.Frame,2_0_0,,,,,,,3896.7000000953703,59441.90000009537,59430.1,59461.2,63357.90000009537,63358.40000009537,2024-06-15T07:51:17.171Z,63398.7,z_ZvPU2GEy,incremental,anketa,6645cf40bc81b65c5faccf1d,participant,hcpibcu9lxfsxbpl,,,,,Što želiš da pronaći nije bilo teško?,Pronaći apoteku nije bilo teško.,si,,,14,,,2305
,stimulus,canvas.Screen,2_0_1_0,,,,,,timeout,11000.400000000009,63358.5,63368.4,63398.7,74367.4,74368.2000002861,2024-06-15T07:51:28.180Z,74399.1,z_ZvPU2GEy,incremental,anketa,6645cf40bc81b65c5faccf1d,participant,hcpibcu9lxfsxbpl,,,,,Što želiš da pronaći nije bilo teško?,Pronaći apoteku nije bilo teško.,si,,,14,,,2305
,Timer frame,html.Frame,2_0_1,,,,,,,10969.600000190738,63358.5,63368.4,63398.7,74368.30000019073,74368.90000009537,2024-06-15T07:51:28.181Z,74461.7,z_ZvPU2GEy,incremental,anketa,6645cf40bc81b65c5faccf1d,participant,hcpibcu9lxfsxbpl,,,,,Što želiš da pronaći nije bilo teško?,Pronaći apoteku nije bilo teško.,si,,,14,,,2305
,Spremanje,canvas.Screen,2_0_2,,,,,,skipped,,74369,,,74368.30000019073,74369.09999990463,2024-06-15T07:51:28.181Z,74461.7,z_ZvPU2GEy,incremental,anketa,6645cf40bc81b65c5faccf1d,participant,hcpibcu9lxfsxbpl,,,,,Što želiš da pronaći nije bilo teško?,Pronaći apoteku nije bilo teško.,si,,,14,,,2305
,Question form,html.Form,2_0_3,,,,,,skipped,,74369.30000019073,,,74368.30000019073,74369.40000009537,2024-06-15T07:51:28.182Z,74461.7,z_ZvPU2GEy,incremental,anketa,6645cf40bc81b65c5faccf1d,participant,hcpibcu9lxfsxbpl,,,,,Što želiš da pronaći nije bilo teško?,Pronaći apoteku nije bilo teško.,si,,,14,,,2305
,Answer indication,canvas.Screen,2_0_4,,,,,,skipped,,74370.80000019073,,,74368.30000019073,74370.90000009537,2024-06-15T07:51:28.183Z,74461.7,z_ZvPU2GEy,incremental,anketa,6645cf40bc81b65c5faccf1d,participant,hcpibcu9lxfsxbpl,,,,,Što želiš da pronaći nije bilo teško?,Pronaći apoteku nije bilo teško.,si,,,14,,,2305
,inter-stimulus,canvas.Screen,2_0_5,,,,,,response,5228.600000190738,74371,74399.1,74461.7,79690.30000019073,79691.5,2024-06-15T07:51:33.504Z,79742.5,z_ZvPU2GEy,incremental,anketa,6645cf40bc81b65c5faccf1d,participant,hcpibcu9lxfsxbpl,,,mousedown,,Što želiš da pronaći nije bilo teško?,Pronaći apoteku nije bilo teško.,si,,,14,,,2305
,Sequence,flow.Sequence,2_0,,,,,,completion,20229.100000190738,59441.90000009537,59430.1,59461.2,79690.30000019073,79691.59999990463,2024-06-15T07:51:33.504Z,79742.5,z_ZvPU2GEy,incremental,anketa,6645cf40bc81b65c5faccf1d,participant,hcpibcu9lxfsxbpl,,,,,Što želiš da pronaći nije bilo teško?,Pronaći apoteku nije bilo teško.,si,,,14,,,2305
,context,canvas.Screen,2_1_0_0,,,,,,response,7126.700000286102,79691.90000009537,79711.2,79742.5,86869.2000002861,86870,2024-06-15T07:51:40.682Z,86929.9,z_ZvPU2GEy,incremental,anketa,6645cf40bc81b65c5faccf1d,participant,hcpibcu9lxfsxbpl,,,click,,"Oni su se svađali navečer, ali ujutro su sve pritužbe već bile zaboravljene..","Navečer su se svađali, ali ujutro su sve pritužbe već bile zaboravljene..",gf,44,40,48,,,
,Timer frame,html.Frame,2_1_0,,,,,,,7127.5,79691.7000002861,79711.2,79742.5,86870,86870.2000002861,2024-06-15T07:51:40.682Z,86929.9,z_ZvPU2GEy,incremental,anketa,6645cf40bc81b65c5faccf1d,participant,hcpibcu9lxfsxbpl,,,,,"Oni su se svađali navečer, ali ujutro su sve pritužbe već bile zaboravljene..","Navečer su se svađali, ali ujutro su sve pritužbe već bile zaboravljene..",gf,44,40,48,,,
,stimulus,canvas.Screen,2_1_1_0,,,,,,response,2948.0000000953733,86870.40000009537,86899.2,86929.9,89877.90000009537,89878.7000002861,2024-06-15T07:51:43.691Z,89930.3,z_ZvPU2GEy,incremental,anketa,6645cf40bc81b65c5faccf1d,participant,hcpibcu9lxfsxbpl,,7,click @7,,"Oni su se svađali navečer, ali ujutro su sve pritužbe već bile zaboravljene..","Navečer su se svađali, ali ujutro su sve pritužbe već bile zaboravljene..",gf,44,40,48,,,
,Timer frame,html.Frame,2_1_1,,,,,,,2948.9000001907407,86870.2000002861,86899.2,86929.9,89878.80000019073,89878.90000009537,2024-06-15T07:51:43.691Z,89930.3,z_ZvPU2GEy,incremental,anketa,6645cf40bc81b65c5faccf1d,participant,hcpibcu9lxfsxbpl,,,,,"Oni su se svađali navečer, ali ujutro su sve pritužbe već bile zaboravljene..","Navečer su se svađali, ali ujutro su sve pritužbe već bile zaboravljene..",gf,44,40,48,,,
,Spremanje,canvas.Screen,2_1_2,,,,,,skipped,,89878.90000009537,,,89878.80000019073,89878.90000009537,2024-06-15T07:51:43.691Z,89930.3,z_ZvPU2GEy,incremental,anketa,6645cf40bc81b65c5faccf1d,participant,hcpibcu9lxfsxbpl,,,,,"Oni su se svađali navečer, ali ujutro su sve pritužbe već bile zaboravljene..","Navečer su se svađali, ali ujutro su sve pritužbe već bile zaboravljene..",gf,44,40,48,,,
,Question form,html.Form,2_1_3,,,,,,skipped,,89878.90000009537,,,89878.80000019073,89879.09999990463,2024-06-15T07:51:43.691Z,89930.3,z_ZvPU2GEy,incremental,anketa,6645cf40bc81b65c5faccf1d,participant,hcpibcu9lxfsxbpl,,,,,"Oni su se svađali navečer, ali ujutro su sve pritužbe već bile zaboravljene..","Navečer su se svađali, ali ujutro su sve pritužbe već bile zaboravljene..",gf,44,40,48,,,
,Answer indication,canvas.Screen,2_1_4,,,,,,skipped,,89879.80000019073,,,89878.80000019073,89879.90000009537,2024-06-15T07:51:43.692Z,89930.3,z_ZvPU2GEy,incremental,anketa,6645cf40bc81b65c5faccf1d,participant,hcpibcu9lxfsxbpl,,,,,"Oni su se svađali navečer, ali ujutro su sve pritužbe već bile zaboravljene..","Navečer su se svađali, ali ujutro su sve pritužbe već bile zaboravljene..",gf,44,40,48,,,
,inter-stimulus,canvas.Screen,2_1_5,,,,,,response,4369.400000286099,89880,89899.3,89930.3,94299.7000002861,94300.80000019073,2024-06-15T07:51:48.113Z,94304.8,z_ZvPU2GEy,incremental,anketa,6645cf40bc81b65c5faccf1d,participant,hcpibcu9lxfsxbpl,,,mousedown,,"Oni su se svađali navečer, ali ujutro su sve pritužbe već bile zaboravljene..","Navečer su se svađali, ali ujutro su sve pritužbe već bile zaboravljene..",gf,44,40,48,,,
,Sequence,flow.Sequence,2_1,,,,,,completion,14557.200000286102,79691.7000002861,79711.2,79742.5,94299.7000002861,94300.90000009537,2024-06-15T07:51:48.113Z,94304.8,z_ZvPU2GEy,incremental,anketa,6645cf40bc81b65c5faccf1d,participant,hcpibcu9lxfsxbpl,,,,,"Oni su se svađali navečer, ali ujutro su sve pritužbe već bile zaboravljene..","Navečer su se svađali, ali ujutro su sve pritužbe već bile zaboravljene..",gf,44,40,48,,,
,context,canvas.Screen,2_2_0_0,,,,,,response,3987.2999999046297,94301.2000002861,94296.652,94304.8,98292.09999990463,98292.90000009537,2024-06-15T07:51:52.105Z,98336.2,z_ZvPU2GEy,incremental,anketa,6645cf40bc81b65c5faccf1d,participant,hcpibcu9lxfsxbpl,,,click,,Kolike su trenutno plaće u hrvatskom sportu?,Kolike plaće su trenutno u hrvatskom sportu?,lbc,,,35,,,
,Timer frame,html.Frame,2_2_0,,,,,,,3988.199999999997,94301,94296.652,94304.8,98293,98293,2024-06-15T07:51:52.105Z,98336.2,z_ZvPU2GEy,incremental,anketa,6645cf40bc81b65c5faccf1d,participant,hcpibcu9lxfsxbpl,,,,,Kolike su trenutno plaće u hrvatskom sportu?,Kolike plaće su trenutno u hrvatskom sportu?,lbc,,,35,,,
,stimulus,canvas.Screen,2_2_1_0,,,,,,response,4484.100000190738,98293.2000002861,98305.9,98336.2,102820.30000019073,102821.2000002861,2024-06-15T07:51:56.633Z,102836.2,z_ZvPU2GEy,incremental,anketa,6645cf40bc81b65c5faccf1d,participant,hcpibcu9lxfsxbpl,,7,click @7,,Kolike su trenutno plaće u hrvatskom sportu?,Kolike plaće su trenutno u hrvatskom sportu?,lbc,,,35,,,
,Timer frame,html.Frame,2_2_1,,,,,,,4485.100000190738,98293.09999990463,98305.9,98336.2,102821.30000019073,102821.40000009537,2024-06-15T07:51:56.634Z,102836.2,z_ZvPU2GEy,incremental,anketa,6645cf40bc81b65c5faccf1d,participant,hcpibcu9lxfsxbpl,,,,,Kolike su trenutno plaće u hrvatskom sportu?,Kolike plaće su trenutno u hrvatskom sportu?,lbc,,,35,,,
,Spremanje,canvas.Screen,2_2_2,,,,,,skipped,,102821.5,,,102821.30000019073,102821.5,2024-06-15T07:51:56.634Z,102836.2,z_ZvPU2GEy,incremental,anketa,6645cf40bc81b65c5faccf1d,participant,hcpibcu9lxfsxbpl,,,,,Kolike su trenutno plaće u hrvatskom sportu?,Kolike plaće su trenutno u hrvatskom sportu?,lbc,,,35,,,
,Question form,html.Form,2_2_3,,,,,,skipped,,102821.59999990463,,,102821.30000019073,102821.59999990463,2024-06-15T07:51:56.634Z,102836.2,z_ZvPU2GEy,incremental,anketa,6645cf40bc81b65c5faccf1d,participant,hcpibcu9lxfsxbpl,,,,,Kolike su trenutno plaće u hrvatskom sportu?,Kolike plaće su trenutno u hrvatskom sportu?,lbc,,,35,,,
,Answer indication,canvas.Screen,2_2_4,,,,,,skipped,,102822.30000019073,,,102821.30000019073,102822.40000009537,2024-06-15T07:51:56.635Z,102836.2,z_ZvPU2GEy,incremental,anketa,6645cf40bc81b65c5faccf1d,participant,hcpibcu9lxfsxbpl,,,,,Kolike su trenutno plaće u hrvatskom sportu?,Kolike plaće su trenutno u hrvatskom sportu?,lbc,,,35,,,
,inter-stimulus,canvas.Screen,2_2_5,,,,,,response,4765.20000009537,102822.5,102815.36,102836.2,107601.40000009537,107602.40000009537,2024-06-15T07:52:01.415Z,107617.5,z_ZvPU2GEy,incremental,anketa,6645cf40bc81b65c5faccf1d,participant,hcpibcu9lxfsxbpl,,,mousedown,,Kolike su trenutno plaće u hrvatskom sportu?,Kolike plaće su trenutno u hrvatskom sportu?,lbc,,,35,,,
,Sequence,flow.Sequence,2_2,,,,,,completion,13296.600000095365,94301,94296.652,94304.8,107601.40000009537,107602.5,2024-06-15T07:52:01.415Z,107617.5,z_ZvPU2GEy,incremental,anketa,6645cf40bc81b65c5faccf1d,participant,hcpibcu9lxfsxbpl,,,,,Kolike su trenutno plaće u hrvatskom sportu?,Kolike plaće su trenutno u hrvatskom sportu?,lbc,,,35,,,
,context,canvas.Screen,2_3_0_0,,,,,,response,3490.300000190735,107602.7000002861,107592.556,107617.5,111107.80000019073,111108.59999990463,2024-06-15T07:52:04.921Z,111148.8,z_ZvPU2GEy,incremental,anketa,6645cf40bc81b65c5faccf1d,participant,hcpibcu9lxfsxbpl,,,click,,Na što je teško prestati besmisleno bacati novac?,Teško je prestati besmisleno bacati novac na tenisice.,si,,,13,,,
,Timer frame,html.Frame,2_3_0,,,,,,,3491.2000002861023,107602.59999990463,107592.556,107617.5,111108.7000002861,111108.80000019073,2024-06-15T07:52:04.921Z,111148.8,z_ZvPU2GEy,incremental,anketa,6645cf40bc81b65c5faccf1d,participant,hcpibcu9lxfsxbpl,,,,,Na što je teško prestati besmisleno bacati novac?,Teško je prestati besmisleno bacati novac na tenisice.,si,,,13,,,
,stimulus,canvas.Screen,2_3_1_0,,,,,,response,4696.1000000953645,111108.90000009537,111118.2,111148.8,115844.90000009537,115845.80000019073,2024-06-15T07:52:09.658Z,115868.3,z_ZvPU2GEy,incremental,anketa,6645cf40bc81b65c5faccf1d,participant,hcpibcu9lxfsxbpl,,7,click @7,,Na što je teško prestati besmisleno bacati novac?,Teško je prestati besmisleno bacati novac na tenisice.,si,,,13,,,
,Timer frame,html.Frame,2_3_1,,,,,,,4697.000000190732,111108.80000019073,111118.2,111148.8,115845.80000019073,115845.90000009537,2024-06-15T07:52:09.658Z,115868.3,z_ZvPU2GEy,incremental,anketa,6645cf40bc81b65c5faccf1d,participant,hcpibcu9lxfsxbpl,,,,,Na što je teško prestati besmisleno bacati novac?,Teško je prestati besmisleno bacati novac na tenisice.,si,,,13,,,
,Spremanje,canvas.Screen,2_3_2,,,,,,skipped,,115846.09999990463,,,115845.80000019073,115846.09999990463,2024-06-15T07:52:09.658Z,115868.3,z_ZvPU2GEy,incremental,anketa,6645cf40bc81b65c5faccf1d,participant,hcpibcu9lxfsxbpl,,,,,Na što je teško prestati besmisleno bacati novac?,Teško je prestati besmisleno bacati novac na tenisice.,si,,,13,,,
,Question form,html.Form,2_3_3,,,,,,skipped,,115846.2000002861,,,115845.80000019073,115846.2000002861,2024-06-15T07:52:09.658Z,115868.3,z_ZvPU2GEy,incremental,anketa,6645cf40bc81b65c5faccf1d,participant,hcpibcu9lxfsxbpl,,,,,Na što je teško prestati besmisleno bacati novac?,Teško je prestati besmisleno bacati novac na tenisice.,si,,,13,,,
,Answer indication,canvas.Screen,2_3_4,,,,,,skipped,,115846.80000019073,,,115845.80000019073,115847,2024-06-15T07:52:09.659Z,115868.3,z_ZvPU2GEy,incremental,anketa,6645cf40bc81b65c5faccf1d,participant,hcpibcu9lxfsxbpl,,,,,Na što je teško prestati besmisleno bacati novac?,Teško je prestati besmisleno bacati novac na tenisice.,si,,,13,,,
,inter-stimulus,canvas.Screen,2_3_5,,,,,,response,4791.500000190732,115847,115838.432,115868.3,120659.80000019073,120661,2024-06-15T07:52:14.473Z,120680,z_ZvPU2GEy,incremental,anketa,6645cf40bc81b65c5faccf1d,participant,hcpibcu9lxfsxbpl,,,mousedown,,Na što je teško prestati besmisleno bacati novac?,Teško je prestati besmisleno bacati novac na tenisice.,si,,,13,,,
,Sequence,flow.Sequence,2_3,,,,,,completion,13042.300000190735,107602.59999990463,107592.556,107617.5,120659.80000019073,120661.09999990463,2024-06-15T07:52:14.473Z,120680,z_ZvPU2GEy,incremental,anketa,6645cf40bc81b65c5faccf1d,participant,hcpibcu9lxfsxbpl,,,,,Na što je teško prestati besmisleno bacati novac?,Teško je prestati besmisleno bacati novac na tenisice.,si,,,13,,,
,context,canvas.Screen,2_4_0_0,,,,,,response,4565,120661.30000019073,120657.008,120680,125245,125245.7000002861,2024-06-15T07:52:19.058Z,125305,z_ZvPU2GEy,incremental,anketa,6645cf40bc81b65c5faccf1d,participant,hcpibcu9lxfsxbpl,,,click,,Što mama hvali kćer koja je u školi dobila?,Mama hvali kćer koja je u školi dobila peticu.,cnp,,,11,,,
,Timer frame,html.Frame,2_4_0,,,,,,,4565.800000190735,120661.2000002861,120657.008,120680,125245.80000019073,125245.90000009537,2024-06-15T07:52:19.058Z,125305,z_ZvPU2GEy,incremental,anketa,6645cf40bc81b65c5faccf1d,participant,hcpibcu9lxfsxbpl,,,,,Što mama hvali kćer koja je u školi dobila?,Mama hvali kćer koja je u školi dobila peticu.,cnp,,,11,,,
,stimulus,canvas.Screen,2_4_1_0,,,,,,timeout,10999.799999999988,125246.09999990463,125274.2,125305,136274.2,136275.5,2024-06-15T07:52:30.088Z,136304.8,z_ZvPU2GEy,incremental,anketa,6645cf40bc81b65c5faccf1d,participant,hcpibcu9lxfsxbpl,,,,,Što mama hvali kćer koja je u školi dobila?,Mama hvali kćer koja je u školi dobila peticu.,cnp,,,11,,,
,Timer frame,html.Frame,2_4_1,,,,,,,10970.700000286102,125245.90000009537,125274.2,125305,136275.7000002861,136275.80000019073,2024-06-15T07:52:30.088Z,136336.2,z_ZvPU2GEy,incremental,anketa,6645cf40bc81b65c5faccf1d,participant,hcpibcu9lxfsxbpl,,,,,Što mama hvali kćer koja je u školi dobila?,Mama hvali kćer koja je u školi dobila peticu.,cnp,,,11,,,
,Spremanje,canvas.Screen,2_4_2,,,,,,skipped,,136276,,,136275.7000002861,136276,2024-06-15T07:52:30.088Z,136336.2,z_ZvPU2GEy,incremental,anketa,6645cf40bc81b65c5faccf1d,participant,hcpibcu9lxfsxbpl,,,,,Što mama hvali kćer koja je u školi dobila?,Mama hvali kćer koja je u školi dobila peticu.,cnp,,,11,,,
,Question form,html.Form,2_4_3,,,,,,skipped,,136276.2000002861,,,136275.7000002861,136276.30000019073,2024-06-15T07:52:30.089Z,136336.2,z_ZvPU2GEy,incremental,anketa,6645cf40bc81b65c5faccf1d,participant,hcpibcu9lxfsxbpl,,,,,Što mama hvali kćer koja je u školi dobila?,Mama hvali kćer koja je u školi dobila peticu.,cnp,,,11,,,
,Answer indication,canvas.Screen,2_4_4,,,,,,skipped,,136277.90000009537,,,136275.7000002861,136278.09999990463,2024-06-15T07:52:30.090Z,136336.2,z_ZvPU2GEy,incremental,anketa,6645cf40bc81b65c5faccf1d,participant,hcpibcu9lxfsxbpl,,,,,Što mama hvali kćer koja je u školi dobila?,Mama hvali kćer koja je u školi dobila peticu.,cnp,,,11,,,
,inter-stimulus,canvas.Screen,2_4_5,,,,,,response,6690.600000190723,136278.30000019073,136304.8,136336.2,143026.80000019073,143027.90000009537,2024-06-15T07:52:36.840Z,143055,z_ZvPU2GEy,incremental,anketa,6645cf40bc81b65c5faccf1d,participant,hcpibcu9lxfsxbpl,,,mousedown,,Što mama hvali kćer koja je u školi dobila?,Mama hvali kćer koja je u školi dobila peticu.,cnp,,,11,,,
,Sequence,flow.Sequence,2_4,,,,,,completion,22346.800000190735,120661.2000002861,120657.008,120680,143026.80000019073,143028,2024-06-15T07:52:36.840Z,143055,z_ZvPU2GEy,incremental,anketa,6645cf40bc81b65c5faccf1d,participant,hcpibcu9lxfsxbpl,,,,,Što mama hvali kćer koja je u školi dobila?,Mama hvali kćer koja je u školi dobila peticu.,cnp,,,11,,,
,context,canvas.Screen,2_5_0_0,,,,,,response,3707.9000000953674,143028.09999990463,143023.9,143055,146762.90000009537,146763.7000002861,2024-06-15T07:52:40.576Z,146773.5,z_ZvPU2GEy,incremental,anketa,6645cf40bc81b65c5faccf1d,participant,hcpibcu9lxfsxbpl,,,click,,Kakav sam vidio barku u oceanu?,Vidio sam bijelu barku u oceanu.,nf,,,41,,,2305
,Timer frame,html.Frame,2_5_0,,,,,,,3708.800000190735,143028.09999990463,143023.9,143055,146763.80000019073,146763.90000009537,2024-06-15T07:52:40.576Z,146773.5,z_ZvPU2GEy,incremental,anketa,6645cf40bc81b65c5faccf1d,participant,hcpibcu9lxfsxbpl,,,,,Kakav sam vidio barku u oceanu?,Vidio sam bijelu barku u oceanu.,nf,,,41,,,2305
,stimulus,canvas.Screen,2_5_1_0,,,,,,timeout,11000.200000000012,146764,146753.06,146773.5,157742.5,157743.30000019073,2024-06-15T07:52:51.556Z,157773.7,z_ZvPU2GEy,incremental,anketa,6645cf40bc81b65c5faccf1d,participant,hcpibcu9lxfsxbpl,,,,,Kakav sam vidio barku u oceanu?,Vidio sam bijelu barku u oceanu.,nf,,,41,,,2305
,Timer frame,html.Frame,2_5_1,,,,,,,10969.900000095367,146764,146753.06,146773.5,157743.40000009537,157743.59999990463,2024-06-15T07:52:51.556Z,157804.9,z_ZvPU2GEy,incremental,anketa,6645cf40bc81b65c5faccf1d,participant,hcpibcu9lxfsxbpl,,,,,Kakav sam vidio barku u oceanu?,Vidio sam bijelu barku u oceanu.,nf,,,41,,,2305
,Spremanje,canvas.Screen,2_5_2,,,,,,skipped,,157743.80000019073,,,157743.40000009537,157743.90000009537,2024-06-15T07:52:51.556Z,157804.9,z_ZvPU2GEy,incremental,anketa,6645cf40bc81b65c5faccf1d,participant,hcpibcu9lxfsxbpl,,,,,Kakav sam vidio barku u oceanu?,Vidio sam bijelu barku u oceanu.,nf,,,41,,,2305
,Question form,html.Form,2_5_3,,,,,,skipped,,157744,,,157743.40000009537,157744.09999990463,2024-06-15T07:52:51.556Z,157804.9,z_ZvPU2GEy,incremental,anketa,6645cf40bc81b65c5faccf1d,participant,hcpibcu9lxfsxbpl,,,,,Kakav sam vidio barku u oceanu?,Vidio sam bijelu barku u oceanu.,nf,,,41,,,2305
,Answer indication,canvas.Screen,2_5_4,,,,,,skipped,,157745.80000019073,,,157743.40000009537,157745.90000009537,2024-06-15T07:52:51.558Z,157804.9,z_ZvPU2GEy,incremental,anketa,6645cf40bc81b65c5faccf1d,participant,hcpibcu9lxfsxbpl,,,,,Kakav sam vidio barku u oceanu?,Vidio sam bijelu barku u oceanu.,nf,,,41,,,2305
,inter-stimulus,canvas.Screen,2_5_5,,,,,,response,4063.300000286108,157746.09999990463,157773.7,157804.9,161868.2000002861,161869.2000002861,2024-06-15T07:52:55.681Z,161930,z_ZvPU2GEy,incremental,anketa,6645cf40bc81b65c5faccf1d,participant,hcpibcu9lxfsxbpl,,,mousedown,,Kakav sam vidio barku u oceanu?,Vidio sam bijelu barku u oceanu.,nf,,,41,,,2305
,Sequence,flow.Sequence,2_5,,,,,,completion,18813.200000286102,143028,143023.9,143055,161868.2000002861,161869.30000019073,2024-06-15T07:52:55.682Z,161930,z_ZvPU2GEy,incremental,anketa,6645cf40bc81b65c5faccf1d,participant,hcpibcu9lxfsxbpl,,,,,Kakav sam vidio barku u oceanu?,Vidio sam bijelu barku u oceanu.,nf,,,41,,,2305
,context,canvas.Screen,2_6_0_0,,,,,,response,7544.5,161869.5,161898.7,161930,169474.5,169475.59999990463,2024-06-15T07:53:03.288Z,169523.7,z_ZvPU2GEy,incremental,anketa,6645cf40bc81b65c5faccf1d,participant,hcpibcu9lxfsxbpl,,,click,,"Što je kupio tata, i spremila je majka?","Tata je kupio meso, a majka je spremila salatu.",csi,,,7,,,
,Timer frame,html.Frame,2_6_0,,,,,,,7545.700000286102,161869.40000009537,161898.7,161930,169475.7000002861,169475.7000002861,2024-06-15T07:53:03.288Z,169523.7,z_ZvPU2GEy,incremental,anketa,6645cf40bc81b65c5faccf1d,participant,hcpibcu9lxfsxbpl,,,,,"Što je kupio tata, i spremila je majka?","Tata je kupio meso, a majka je spremila salatu.",csi,,,7,,,
,stimulus,canvas.Screen,2_6_1_0,,,,,,response,10822.899999904621,169475.90000009537,169492.5,169523.7,180346.59999990463,180347.5,2024-06-15T07:53:14.160Z,180398.6,z_ZvPU2GEy,incremental,anketa,6645cf40bc81b65c5faccf1d,participant,hcpibcu9lxfsxbpl,,7,click @7,,"Što je kupio tata, i spremila je majka?","Tata je kupio meso, a majka je spremila salatu.",csi,,,7,,,
,Timer frame,html.Frame,2_6_1,,,,,,,10823.899999904621,169475.80000019073,169492.5,169523.7,180347.59999990463,180347.7000002861,2024-06-15T07:53:14.160Z,180398.6,z_ZvPU2GEy,incremental,anketa,6645cf40bc81b65c5faccf1d,participant,hcpibcu9lxfsxbpl,,,,,"Što je kupio tata, i spremila je majka?","Tata je kupio meso, a majka je spremila salatu.",csi,,,7,,,
,Spremanje,canvas.Screen,2_6_2,,,,,,skipped,,180347.80000019073,,,180347.59999990463,180347.80000019073,2024-06-15T07:53:14.160Z,180398.6,z_ZvPU2GEy,incremental,anketa,6645cf40bc81b65c5faccf1d,participant,hcpibcu9lxfsxbpl,,,,,"Što je kupio tata, i spremila je majka?","Tata je kupio meso, a majka je spremila salatu.",csi,,,7,,,
,Question form,html.Form,2_6_3,,,,,,skipped,,180347.90000009537,,,180347.59999990463,180348,2024-06-15T07:53:14.160Z,180398.6,z_ZvPU2GEy,incremental,anketa,6645cf40bc81b65c5faccf1d,participant,hcpibcu9lxfsxbpl,,,,,"Što je kupio tata, i spremila je majka?","Tata je kupio meso, a majka je spremila salatu.",csi,,,7,,,
,Answer indication,canvas.Screen,2_6_4,,,,,,skipped,,180348.59999990463,,,180347.59999990463,180348.59999990463,2024-06-15T07:53:14.161Z,180398.6,z_ZvPU2GEy,incremental,anketa,6645cf40bc81b65c5faccf1d,participant,hcpibcu9lxfsxbpl,,,,,"Što je kupio tata, i spremila je majka?","Tata je kupio meso, a majka je spremila salatu.",csi,,,7,,,
,inter-stimulus,canvas.Screen,2_6_5,,,,,,response,5348.499999904627,180348.7000002861,180368.1,180398.6,185747.09999990463,185748.09999990463,2024-06-15T07:53:19.560Z,185805,z_ZvPU2GEy,incremental,anketa,6645cf40bc81b65c5faccf1d,participant,hcpibcu9lxfsxbpl,,,mousedown,,"Što je kupio tata, i spremila je majka?","Tata je kupio meso, a majka je spremila salatu.",csi,,,7,,,
,Sequence,flow.Sequence,2_6,,,,,,completion,23817.099999904633,161869.30000019073,161898.7,161930,185747.09999990463,185748.2000002861,2024-06-15T07:53:19.560Z,185805,z_ZvPU2GEy,incremental,anketa,6645cf40bc81b65c5faccf1d,participant,hcpibcu9lxfsxbpl,,,,,"Što je kupio tata, i spremila je majka?","Tata je kupio meso, a majka je spremila salatu.",csi,,,7,,,
,context,canvas.Screen,2_7_0_0,,,,,,response,5150.800000190735,185748.40000009537,185773.7,185805,190955.80000019073,190956.80000019073,2024-06-15T07:53:24.769Z,190992.8,z_ZvPU2GEy,incremental,anketa,6645cf40bc81b65c5faccf1d,participant,hcpibcu9lxfsxbpl,,,click,,Tko strah me i zamisliti s kakvim će se ogorčenjem vratiti kući??,Strah me i zamisliti s kakvim će se ogorčenjem moj brat vratiti kući..,ai,24,20,29,,,
,Timer frame,html.Frame,2_7_0,,,,,,,5151.900000095367,185748.30000019073,185773.7,185805,190956.90000009537,190957,2024-06-15T07:53:24.769Z,190992.8,z_ZvPU2GEy,incremental,anketa,6645cf40bc81b65c5faccf1d,participant,hcpibcu9lxfsxbpl,,,,,Tko strah me i zamisliti s kakvim će se ogorčenjem vratiti kući??,Strah me i zamisliti s kakvim će se ogorčenjem moj brat vratiti kući..,ai,24,20,29,,,
,stimulus,canvas.Screen,2_7_1_0,,,,,,timeout,10999.700000000012,190957.09999990463,190961.2,190992.8,201961.2,201966.2000002861,2024-06-15T07:53:35.778Z,201992.5,z_ZvPU2GEy,incremental,anketa,6645cf40bc81b65c5faccf1d,participant,hcpibcu9lxfsxbpl,,,,,Tko strah me i zamisliti s kakvim će se ogorčenjem vratiti kući??,Strah me i zamisliti s kakvim će se ogorčenjem moj brat vratiti kući..,ai,24,20,29,,,
,Timer frame,html.Frame,2_7_1,,,,,,,10973.600000095379,190957.09999990463,190961.2,190992.8,201966.40000009537,201966.59999990463,2024-06-15T07:53:35.779Z,202023.8,z_ZvPU2GEy,incremental,anketa,6645cf40bc81b65c5faccf1d,participant,hcpibcu9lxfsxbpl,,,,,Tko strah me i zamisliti s kakvim će se ogorčenjem vratiti kući??,Strah me i zamisliti s kakvim će se ogorčenjem moj brat vratiti kući..,ai,24,20,29,,,
,Spremanje,canvas.Screen,2_7_2,,,,,,skipped,,201966.7000002861,,,201966.40000009537,201966.90000009537,2024-06-15T07:53:35.779Z,202023.8,z_ZvPU2GEy,incremental,anketa,6645cf40bc81b65c5faccf1d,participant,hcpibcu9lxfsxbpl,,,,,Tko strah me i zamisliti s kakvim će se ogorčenjem vratiti kući??,Strah me i zamisliti s kakvim će se ogorčenjem moj brat vratiti kući..,ai,24,20,29,,,
,Question form,html.Form,2_7_3,,,,,,skipped,,201967,,,201966.40000009537,201967.09999990463,2024-06-15T07:53:35.779Z,202023.8,z_ZvPU2GEy,incremental,anketa,6645cf40bc81b65c5faccf1d,participant,hcpibcu9lxfsxbpl,,,,,Tko strah me i zamisliti s kakvim će se ogorčenjem vratiti kući??,Strah me i zamisliti s kakvim će se ogorčenjem moj brat vratiti kući..,ai,24,20,29,,,
,Answer indication,canvas.Screen,2_7_4,,,,,,skipped,,201967.7000002861,,,201966.40000009537,201967.7000002861,2024-06-15T07:53:35.780Z,202023.8,z_ZvPU2GEy,incremental,anketa,6645cf40bc81b65c5faccf1d,participant,hcpibcu9lxfsxbpl,,,,,Tko strah me i zamisliti s kakvim će se ogorčenjem vratiti kući??,Strah me i zamisliti s kakvim će se ogorčenjem moj brat vratiti kući..,ai,24,20,29,,,
"{""labjs_version"":""20.2.4"",""labjs_build"":{""flavor"":""production"",""commit"":""f5b4a49f956347addd546a832a3327688c2c0fef""},""location"":""https://open-lab.online/test/anketa/666d43ecd705844101ef3e9a"",""userAgent"":""Mozilla/5.0 (Windows NT 10.0; Win64; x64) AppleWebKit/537.36 (KHTML, like Gecko) Chrome/126.0.0.0 Safari/537.36"",""platform"":""Win32"",""language"":""ru-RU"",""locale"":""ru"",""timeZone"":""Europe/Moscow"",""timezoneOffset"":-180,""screen_width"":1536,""screen_height"":864,""scroll_width"":1536,""scroll_height"":690,""window_innerWidth"":1536,""window_innerHeight"":738,""devicePixelRatio"":1.25}",Demography form,html.Form,0,49,highschool,speak-fluently,Ekonomista. Zagreb,,form submission,41917.600000095365,1084.8000001907349,1104.232,1133.3,43050.90000009537,43051.40000009537,2024-06-15T08:33:54.323Z,43070.7,z_ZvPU2GEy,incremental,anketa,6645cf40bc81b65c5faccf1d,participant,hcpibcu9lxfsxbpl,938311,,,,,,,,,,,,
,context,canvas.Screen,1_0,,,,,,response,7103.3999999046355,43051.59999990463,43047.728,43070.7,50174.09999990463,50175,2024-06-15T08:34:01.446Z,50195.7,z_ZvPU2GEy,incremental,anketa,6645cf40bc81b65c5faccf1d,participant,hcpibcu9lxfsxbpl,,,click,,,,,,,,,,
,stimulus,canvas.Screen,1_1,,,,,,response,2139.800000000003,50175.09999990463,50168.554,50195.7,52335.5,52338.300000190735,2024-06-15T08:34:03.610Z,52351.9,z_ZvPU2GEy,incremental,anketa,6645cf40bc81b65c5faccf1d,participant,hcpibcu9lxfsxbpl,,7,click @7,,,,,,,,,,
,inter-stimulus,canvas.Screen,1_2,,,,,,response,7542.300000286101,52338.300000190735,52324.754,52351.9,59894.2000002861,59895.59999990463,2024-06-15T08:34:11.167Z,59914.3,z_ZvPU2GEy,incremental,anketa,6645cf40bc81b65c5faccf1d,participant,hcpibcu9lxfsxbpl,,,mousedown,,,,,,,,,,
,context,canvas.Screen,1_3,,,,,,response,2252.000000190732,59895.59999990463,59891.428,59914.3,62166.300000190735,62167.2000002861,2024-06-15T08:34:13.438Z,62195.5,z_ZvPU2GEy,incremental,anketa,6645cf40bc81b65c5faccf1d,participant,hcpibcu9lxfsxbpl,,,click,,,,,,,,,,
,stimulus,canvas.Screen,1_4,,,,,,response,2331.4000000953674,62167.300000190735,62164.4,62195.5,64526.90000009537,64527.90000009537,2024-06-15T08:34:15.799Z,64539.3,z_ZvPU2GEy,incremental,anketa,6645cf40bc81b65c5faccf1d,participant,hcpibcu9lxfsxbpl,,7,click @7,,,,,,,,,,
,inter-stimulus,canvas.Screen,1_5,,,,,,response,5250.400000286099,64527.90000009537,64523.524,64539.3,69789.7000002861,69791.40000009537,2024-06-15T08:34:21.063Z,69820.5,z_ZvPU2GEy,incremental,anketa,6645cf40bc81b65c5faccf1d,participant,hcpibcu9lxfsxbpl,,,mousedown,,,,,,,,,,
,context,canvas.Screen,1_6,,,,,,response,3281,69791.5,69789.3,69820.5,73101.5,73102.40000009537,2024-06-15T08:34:24.374Z,73133,z_ZvPU2GEy,incremental,anketa,6645cf40bc81b65c5faccf1d,participant,hcpibcu9lxfsxbpl,,,click,,,,,,,,,,
,stimulus,canvas.Screen,1_7_0,,,,,,response,3633.4000000953674,73104.30000019073,73101.9,73133,76766.40000009537,76767.30000019073,2024-06-15T08:34:28.039Z,76790.1,z_ZvPU2GEy,incremental,anketa,6645cf40bc81b65c5faccf1d,participant,hcpibcu9lxfsxbpl,,7,click @7,,,,,,,,,,
,Timer frame,html.Frame,1_7,,,,,,,3634.5,73102.40000009537,73101.9,73133,76767.5,76767.59999990463,2024-06-15T08:34:28.039Z,76790.1,z_ZvPU2GEy,incremental,anketa,6645cf40bc81b65c5faccf1d,participant,hcpibcu9lxfsxbpl,,,,,,,,,,,,,
,Screen,canvas.Screen,1_8,,,,,,response,3898.9999999046267,76767.80000019073,76760.732,76790.1,80689.09999990463,80689.90000009537,2024-06-15T08:34:31.961Z,80696.1,z_ZvPU2GEy,incremental,anketa,6645cf40bc81b65c5faccf1d,participant,hcpibcu9lxfsxbpl,,,mousedown,,,,,,,,,,
,Question form,html.Form,1_9,,,,,,form submission,4622.6000002860965,80690,80678.944,80696.1,85318.7000002861,85318.90000009537,2024-06-15T08:34:36.590Z,85351.9,z_ZvPU2GEy,incremental,anketa,6645cf40bc81b65c5faccf1d,participant,hcpibcu9lxfsxbpl,,,,zrele,,,,,,,,,
,Screen,canvas.Screen,1_10,,,,,,response,4212.300000286108,85319.90000009537,85321.3,85351.9,89564.2000002861,89565.2000002861,2024-06-15T08:34:40.836Z,89571.2,z_ZvPU2GEy,incremental,anketa,6645cf40bc81b65c5faccf1d,participant,hcpibcu9lxfsxbpl,,,mousedown,,,,,,,,,,
,inter-stimulus,canvas.Screen,1_11,,,,,,response,2381.100000190738,89565.30000019073,89562.562,89571.2,91952.30000019073,91954.5,2024-06-15T08:34:43.226Z,91977.6,z_ZvPU2GEy,incremental,anketa,6645cf40bc81b65c5faccf1d,participant,hcpibcu9lxfsxbpl,,,mousedown,,,,,,,,,,
,First stimuli,flow.Sequence,1,,,,,,completion,48881.60000019074,43051.59999990463,43047.728,43070.7,91952.30000019073,91957.40000009537,2024-06-15T08:34:43.229Z,91977.6,z_ZvPU2GEy,incremental,anketa,6645cf40bc81b65c5faccf1d,participant,hcpibcu9lxfsxbpl,,,,,,,,,,,,,
,context,canvas.Screen,2_0_0_0,,,,,,response,5635.899999999994,91957.7000002861,91954.438,91977.6,97613.5,97614.30000019073,2024-06-15T08:34:48.885Z,97633.2,z_ZvPU2GEy,incremental,anketa,6645cf40bc81b65c5faccf1d,participant,hcpibcu9lxfsxbpl,,,click,,Koliko vidim dječaka kojem je ljubazni poštar poklonio bicikla??,Vidim dječaka kojem je ljubazni poštar poklonio dva bicikla..,cnp,38,38,10,,,2305
,Timer frame,html.Frame,2_0_0,,,,,,,5636.800000095362,91957.59999990463,91954.438,91977.6,97614.40000009537,97614.80000019073,2024-06-15T08:34:48.886Z,97633.2,z_ZvPU2GEy,incremental,anketa,6645cf40bc81b65c5faccf1d,participant,hcpibcu9lxfsxbpl,,,,,Koliko vidim dječaka kojem je ljubazni poštar poklonio bicikla??,Vidim dječaka kojem je ljubazni poštar poklonio dva bicikla..,cnp,38,38,10,,,2305
,stimulus,canvas.Screen,2_0_1_0,,,,,,response,5199.300000000003,97615.09999990463,97604.032,97633.2,102832.5,102833.30000019073,2024-06-15T08:34:54.104Z,102883.9,z_ZvPU2GEy,incremental,anketa,6645cf40bc81b65c5faccf1d,participant,hcpibcu9lxfsxbpl,,7,click @7,,Koliko vidim dječaka kojem je ljubazni poštar poklonio bicikla??,Vidim dječaka kojem je ljubazni poštar poklonio dva bicikla..,cnp,38,38,10,,,2305
,Timer frame,html.Frame,2_0_1,,,,,,,5200.20000009537,97615,97604.032,97633.2,102833.40000009537,102833.80000019073,2024-06-15T08:34:54.105Z,102883.9,z_ZvPU2GEy,incremental,anketa,6645cf40bc81b65c5faccf1d,participant,hcpibcu9lxfsxbpl,,,,,Koliko vidim dječaka kojem je ljubazni poštar poklonio bicikla??,Vidim dječaka kojem je ljubazni poštar poklonio dva bicikla..,cnp,38,38,10,,,2305
,Spremanje,canvas.Screen,2_0_2,,,,,,skipped,,102833.80000019073,,,102833.40000009537,102833.90000009537,2024-06-15T08:34:54.105Z,102883.9,z_ZvPU2GEy,incremental,anketa,6645cf40bc81b65c5faccf1d,participant,hcpibcu9lxfsxbpl,,,,,Koliko vidim dječaka kojem je ljubazni poštar poklonio bicikla??,Vidim dječaka kojem je ljubazni poštar poklonio dva bicikla..,cnp,38,38,10,,,2305
,Question form,html.Form,2_0_3,,,,,,skipped,,102834,,,102833.40000009537,102834,2024-06-15T08:34:54.105Z,102883.9,z_ZvPU2GEy,incremental,anketa,6645cf40bc81b65c5faccf1d,participant,hcpibcu9lxfsxbpl,,,,,Koliko vidim dječaka kojem je ljubazni poštar poklonio bicikla??,Vidim dječaka kojem je ljubazni poštar poklonio dva bicikla..,cnp,38,38,10,,,2305
,Answer indication,canvas.Screen,2_0_4,,,,,,skipped,,102834.80000019073,,,102833.40000009537,102834.90000009537,2024-06-15T08:34:54.106Z,102883.9,z_ZvPU2GEy,incremental,anketa,6645cf40bc81b65c5faccf1d,participant,hcpibcu9lxfsxbpl,,,,,Koliko vidim dječaka kojem je ljubazni poštar poklonio bicikla??,Vidim dječaka kojem je ljubazni poštar poklonio dva bicikla..,cnp,38,38,10,,,2305
,inter-stimulus,canvas.Screen,2_0_5,,,,,,response,10662.500000095373,102835,102851.8,102883.9,113546.40000009537,113548.7000002861,2024-06-15T08:35:04.820Z,113570.7,z_ZvPU2GEy,incremental,anketa,6645cf40bc81b65c5faccf1d,participant,hcpibcu9lxfsxbpl,,,mousedown,,Koliko vidim dječaka kojem je ljubazni poštar poklonio bicikla??,Vidim dječaka kojem je ljubazni poštar poklonio dva bicikla..,cnp,38,38,10,,,2305
,Sequence,flow.Sequence,2_0,,,,,,completion,21568.80000009536,91957.59999990463,91954.438,91977.6,113546.40000009537,113549.2000002861,2024-06-15T08:35:04.820Z,113570.7,z_ZvPU2GEy,incremental,anketa,6645cf40bc81b65c5faccf1d,participant,hcpibcu9lxfsxbpl,,,,,Koliko vidim dječaka kojem je ljubazni poštar poklonio bicikla??,Vidim dječaka kojem je ljubazni poštar poklonio dva bicikla..,cnp,38,38,10,,,2305
,context,canvas.Screen,2_1_0_0,,,,,,response,5490.000000286105,113549.59999990463,113547.728,113570.7,119060.7000002861,119061.7000002861,2024-06-15T08:35:10.333Z,119101.8,z_ZvPU2GEy,incremental,anketa,6645cf40bc81b65c5faccf1d,participant,hcpibcu9lxfsxbpl,,,click,,Što ćemo uništit i saditi vrtove?,Uništit ćemo carstva i saditi vrtove.,csi,0,0,5,,,
,Timer frame,html.Frame,2_1_0,,,,,,,5491.000000286105,113549.40000009537,113547.728,113570.7,119061.7000002861,119061.90000009537,2024-06-15T08:35:10.333Z,119101.8,z_ZvPU2GEy,incremental,anketa,6645cf40bc81b65c5faccf1d,participant,hcpibcu9lxfsxbpl,,,,,Što ćemo uništit i saditi vrtove?,Uništit ćemo carstva i saditi vrtove.,csi,0,0,5,,,
,stimulus,canvas.Screen,2_1_1_0,,,,,,response,9119.000000190732,119062,119070.5,119101.8,128220.80000019073,128221.59999990463,2024-06-15T08:35:19.493Z,128226.8,z_ZvPU2GEy,incremental,anketa,6645cf40bc81b65c5faccf1d,participant,hcpibcu9lxfsxbpl,,7,click @7,,Što ćemo uništit i saditi vrtove?,Uništit ćemo carstva i saditi vrtove.,csi,0,0,5,,,
,Timer frame,html.Frame,2_1_1,,,,,,,9120.000000190732,119061.90000009537,119070.5,119101.8,128221.80000019073,128221.80000019073,2024-06-15T08:35:19.493Z,128226.8,z_ZvPU2GEy,incremental,anketa,6645cf40bc81b65c5faccf1d,participant,hcpibcu9lxfsxbpl,,,,,Što ćemo uništit i saditi vrtove?,Uništit ćemo carstva i saditi vrtove.,csi,0,0,5,,,
,Spremanje,canvas.Screen,2_1_2,,,,,,skipped,,128221.90000009537,,,128221.80000019073,128221.90000009537,2024-06-15T08:35:19.493Z,128226.8,z_ZvPU2GEy,incremental,anketa,6645cf40bc81b65c5faccf1d,participant,hcpibcu9lxfsxbpl,,,,,Što ćemo uništit i saditi vrtove?,Uništit ćemo carstva i saditi vrtove.,csi,0,0,5,,,
,Question form,html.Form,2_1_3,,,,,,skipped,,128222,,,128221.80000019073,128222,2024-06-15T08:35:19.493Z,128226.8,z_ZvPU2GEy,incremental,anketa,6645cf40bc81b65c5faccf1d,participant,hcpibcu9lxfsxbpl,,,,,Što ćemo uništit i saditi vrtove?,Uništit ćemo carstva i saditi vrtove.,csi,0,0,5,,,
,Answer indication,canvas.Screen,2_1_4,,,,,,skipped,,128222.80000019073,,,128221.80000019073,128222.80000019073,2024-06-15T08:35:19.494Z,128226.8,z_ZvPU2GEy,incremental,anketa,6645cf40bc81b65c5faccf1d,participant,hcpibcu9lxfsxbpl,,,,,Što ćemo uništit i saditi vrtove?,Uništit ćemo carstva i saditi vrtove.,csi,0,0,5,,,
,inter-stimulus,canvas.Screen,2_1_5,,,,,,response,11912.000000190732,128222.90000009537,128215.298,128226.8,140138.80000019073,140139.90000009537,2024-06-15T08:35:31.411Z,140195.7,z_ZvPU2GEy,incremental,anketa,6645cf40bc81b65c5faccf1d,participant,hcpibcu9lxfsxbpl,,,mousedown,,Što ćemo uništit i saditi vrtove?,Uništit ćemo carstva i saditi vrtove.,csi,0,0,5,,,
,Sequence,flow.Sequence,2_1,,,,,,completion,26568.100000190738,113549.30000019073,113547.728,113570.7,140138.80000019073,140140,2024-06-15T08:35:31.411Z,140195.7,z_ZvPU2GEy,incremental,anketa,6645cf40bc81b65c5faccf1d,participant,hcpibcu9lxfsxbpl,,,,,Što ćemo uništit i saditi vrtove?,Uništit ćemo carstva i saditi vrtove.,csi,0,0,5,,,
,context,canvas.Screen,2_2_0_0,,,,,,response,3008.700000095356,140140.30000019073,140164.5,140195.7,143204.40000009537,143205.09999990463,2024-06-15T08:35:34.476Z,143227.3,z_ZvPU2GEy,incremental,anketa,6645cf40bc81b65c5faccf1d,participant,hcpibcu9lxfsxbpl,,,click,,U sutra ne samo svatko jedan može gledati.,Ne može svatko gledati u sutra.,nf,,,45,,,
,Timer frame,html.Frame,2_2_0,,,,,,,3009.5000002860907,140140.09999990463,140164.5,140195.7,143205.2000002861,143205.2000002861,2024-06-15T08:35:34.476Z,143227.3,z_ZvPU2GEy,incremental,anketa,6645cf40bc81b65c5faccf1d,participant,hcpibcu9lxfsxbpl,,,,,U sutra ne samo svatko jedan može gledati.,Ne može svatko gledati u sutra.,nf,,,45,,,
,stimulus,canvas.Screen,2_2_1_0,,,,,,response,5090.299999904644,143205.40000009537,143197.632,143227.3,148317.59999990463,148318.90000009537,2024-06-15T08:35:39.590Z,148352,z_ZvPU2GEy,incremental,anketa,6645cf40bc81b65c5faccf1d,participant,hcpibcu9lxfsxbpl,,1,click @1,,U sutra ne samo svatko jedan može gledati.,Ne može svatko gledati u sutra.,nf,,,45,,,
,Timer frame,html.Frame,2_2_1,,,,,,,5091.700000000012,143205.30000019073,143197.632,143227.3,148319,148319.09999990463,2024-06-15T08:35:39.590Z,148352,z_ZvPU2GEy,incremental,anketa,6645cf40bc81b65c5faccf1d,participant,hcpibcu9lxfsxbpl,,,,,U sutra ne samo svatko jedan može gledati.,Ne može svatko gledati u sutra.,nf,,,45,,,
,Spremanje,canvas.Screen,2_2_2,,,,,,skipped,,148319.09999990463,,,148319,148319.09999990463,2024-06-15T08:35:39.590Z,148352,z_ZvPU2GEy,incremental,anketa,6645cf40bc81b65c5faccf1d,participant,hcpibcu9lxfsxbpl,,,,,U sutra ne samo svatko jedan može gledati.,Ne može svatko gledati u sutra.,nf,,,45,,,
,Question form,html.Form,2_2_3,,,,,,skipped,,148319.2000002861,,,148319,148319.30000019073,2024-06-15T08:35:39.590Z,148352,z_ZvPU2GEy,incremental,anketa,6645cf40bc81b65c5faccf1d,participant,hcpibcu9lxfsxbpl,,,,,U sutra ne samo svatko jedan može gledati.,Ne može svatko gledati u sutra.,nf,,,45,,,
,Answer indication,canvas.Screen,2_2_4,,,,,,skipped,,148319.80000019073,,,148319,148319.90000009537,2024-06-15T08:35:39.591Z,148352,z_ZvPU2GEy,incremental,anketa,6645cf40bc81b65c5faccf1d,participant,hcpibcu9lxfsxbpl,,,,,U sutra ne samo svatko jedan može gledati.,Ne može svatko gledati u sutra.,nf,,,45,,,
,inter-stimulus,canvas.Screen,2_2_5,,,,,,response,6506.200000286102,148319.90000009537,148321.1,148352,154858.2000002861,154860.40000009537,2024-06-15T08:35:46.131Z,154883.1,z_ZvPU2GEy,incremental,anketa,6645cf40bc81b65c5faccf1d,participant,hcpibcu9lxfsxbpl,,,mousedown,,U sutra ne samo svatko jedan može gledati.,Ne može svatko gledati u sutra.,nf,,,45,,,
,Sequence,flow.Sequence,2_2,,,,,,completion,14662.50000028609,140140.09999990463,140164.5,140195.7,154858.2000002861,154860.80000019073,2024-06-15T08:35:46.132Z,154883.1,z_ZvPU2GEy,incremental,anketa,6645cf40bc81b65c5faccf1d,participant,hcpibcu9lxfsxbpl,,,,,U sutra ne samo svatko jedan može gledati.,Ne može svatko gledati u sutra.,nf,,,45,,,
,context,canvas.Screen,2_3_0_0,,,,,,response,3217.1000002860965,154861.09999990463,154862.26,154883.1,158100.2000002861,158101.09999990463,2024-06-15T08:35:49.372Z,158102.3,z_ZvPU2GEy,incremental,anketa,6645cf40bc81b65c5faccf1d,participant,hcpibcu9lxfsxbpl,,,click,,Tko je ovo bio jasan slučaj da je zapravo pohlepna osoba??,Ovo je bio jasan slučaj da je on zapravo pohlepna osoba..,cnp,41,40,8,,,
,Timer frame,html.Frame,2_3_0,,,,,,,3218.1000002860965,154861,154862.26,154883.1,158101.2000002861,158101.2000002861,2024-06-15T08:35:49.372Z,158102.3,z_ZvPU2GEy,incremental,anketa,6645cf40bc81b65c5faccf1d,participant,hcpibcu9lxfsxbpl,,,,,Tko je ovo bio jasan slučaj da je zapravo pohlepna osoba??,Ovo je bio jasan slučaj da je on zapravo pohlepna osoba..,cnp,41,40,8,,,
,stimulus,canvas.Screen,2_3_1_0,,,,,,response,5013.799999904644,158101.40000009537,158092.42,158102.3,163116.09999990463,163117,2024-06-15T08:35:54.388Z,163164.4,z_ZvPU2GEy,incremental,anketa,6645cf40bc81b65c5faccf1d,participant,hcpibcu9lxfsxbpl,,1,click @1,,Tko je ovo bio jasan slučaj da je zapravo pohlepna osoba??,Ovo je bio jasan slučaj da je on zapravo pohlepna osoba..,cnp,41,40,8,,,
,Timer frame,html.Frame,2_3_1,,,,,,,5014.700000000012,158101.2000002861,158092.42,158102.3,163117,163117.2000002861,2024-06-15T08:35:54.388Z,163164.4,z_ZvPU2GEy,incremental,anketa,6645cf40bc81b65c5faccf1d,participant,hcpibcu9lxfsxbpl,,,,,Tko je ovo bio jasan slučaj da je zapravo pohlepna osoba??,Ovo je bio jasan slučaj da je on zapravo pohlepna osoba..,cnp,41,40,8,,,
,Spremanje,canvas.Screen,2_3_2,,,,,,skipped,,163117.2000002861,,,163117,163117.30000019073,2024-06-15T08:35:54.388Z,163164.4,z_ZvPU2GEy,incremental,anketa,6645cf40bc81b65c5faccf1d,participant,hcpibcu9lxfsxbpl,,,,,Tko je ovo bio jasan slučaj da je zapravo pohlepna osoba??,Ovo je bio jasan slučaj da je on zapravo pohlepna osoba..,cnp,41,40,8,,,
,Question form,html.Form,2_3_3,,,,,,skipped,,163117.40000009537,,,163117,163117.40000009537,2024-06-15T08:35:54.388Z,163164.4,z_ZvPU2GEy,incremental,anketa,6645cf40bc81b65c5faccf1d,participant,hcpibcu9lxfsxbpl,,,,,Tko je ovo bio jasan slučaj da je zapravo pohlepna osoba??,Ovo je bio jasan slučaj da je on zapravo pohlepna osoba..,cnp,41,40,8,,,
,Answer indication,canvas.Screen,2_3_4,,,,,,skipped,,163118.09999990463,,,163117,163118.09999990463,2024-06-15T08:35:54.389Z,163164.4,z_ZvPU2GEy,incremental,anketa,6645cf40bc81b65c5faccf1d,participant,hcpibcu9lxfsxbpl,,,,,Tko je ovo bio jasan slučaj da je zapravo pohlepna osoba??,Ovo je bio jasan slučaj da je on zapravo pohlepna osoba..,cnp,41,40,8,,,
,inter-stimulus,canvas.Screen,2_3_5,,,,,,response,6093.199999904638,163118.30000019073,163133.1,163164.4,169257.59999990463,169260,2024-06-15T08:36:00.531Z,169289.4,z_ZvPU2GEy,incremental,anketa,6645cf40bc81b65c5faccf1d,participant,hcpibcu9lxfsxbpl,,,mousedown,,Tko je ovo bio jasan slučaj da je zapravo pohlepna osoba??,Ovo je bio jasan slučaj da je on zapravo pohlepna osoba..,cnp,41,40,8,,,
,Sequence,flow.Sequence,2_3,,,,,,completion,14374.499999904627,154860.90000009537,154862.26,154883.1,169257.59999990463,169260.30000019073,2024-06-15T08:36:00.531Z,169289.4,z_ZvPU2GEy,incremental,anketa,6645cf40bc81b65c5faccf1d,participant,hcpibcu9lxfsxbpl,,,,,Tko je ovo bio jasan slučaj da je zapravo pohlepna osoba??,Ovo je bio jasan slučaj da je on zapravo pohlepna osoba..,cnp,41,40,8,,,
,context,canvas.Screen,2_4_0_0,,,,,,response,7274.400000190741,169260.7000002861,169258.4,169289.4,176563.80000019073,176564.90000009537,2024-06-15T08:36:07.836Z,176601.9,z_ZvPU2GEy,incremental,anketa,6645cf40bc81b65c5faccf1d,participant,hcpibcu9lxfsxbpl,,,click,,Vidimo plažu daleko od koje smo bili.,Vidimo plažu od koje smo bili daleko.,ai,,,24,,,
,Timer frame,html.Frame,2_4_0,,,,,,,7275.500000095373,169260.5,169258.4,169289.4,176564.90000009537,176565,2024-06-15T08:36:07.836Z,176601.9,z_ZvPU2GEy,incremental,anketa,6645cf40bc81b65c5faccf1d,participant,hcpibcu9lxfsxbpl,,,,,Vidimo plažu daleko od koje smo bili.,Vidimo plažu od koje smo bili daleko.,ai,,,24,,,
,stimulus,canvas.Screen,2_4_1_0,,,,,,response,7425.699999904638,176565.09999990463,176570.6,176601.9,184027.59999990463,184028.40000009537,2024-06-15T08:36:15.299Z,184070.6,z_ZvPU2GEy,incremental,anketa,6645cf40bc81b65c5faccf1d,participant,hcpibcu9lxfsxbpl,,7,click @7,,Vidimo plažu daleko od koje smo bili.,Vidimo plažu od koje smo bili daleko.,ai,,,24,,,
,Timer frame,html.Frame,2_4_1,,,,,,,7426.600000000006,176565,176570.6,176601.9,184028.5,184028.59999990463,2024-06-15T08:36:15.300Z,184070.6,z_ZvPU2GEy,incremental,anketa,6645cf40bc81b65c5faccf1d,participant,hcpibcu9lxfsxbpl,,,,,Vidimo plažu daleko od koje smo bili.,Vidimo plažu od koje smo bili daleko.,ai,,,24,,,
,Spremanje,canvas.Screen,2_4_2,,,,,,skipped,,184028.59999990463,,,184028.5,184028.7000002861,2024-06-15T08:36:15.300Z,184070.6,z_ZvPU2GEy,incremental,anketa,6645cf40bc81b65c5faccf1d,participant,hcpibcu9lxfsxbpl,,,,,Vidimo plažu daleko od koje smo bili.,Vidimo plažu od koje smo bili daleko.,ai,,,24,,,
,Question form,html.Form,2_4_3,,,,,,skipped,,184028.7000002861,,,184028.5,184028.80000019073,2024-06-15T08:36:15.300Z,184070.6,z_ZvPU2GEy,incremental,anketa,6645cf40bc81b65c5faccf1d,participant,hcpibcu9lxfsxbpl,,,,,Vidimo plažu daleko od koje smo bili.,Vidimo plažu od koje smo bili daleko.,ai,,,24,,,
,Answer indication,canvas.Screen,2_4_4,,,,,,skipped,,184029.30000019073,,,184028.5,184029.40000009537,2024-06-15T08:36:15.300Z,184070.6,z_ZvPU2GEy,incremental,anketa,6645cf40bc81b65c5faccf1d,participant,hcpibcu9lxfsxbpl,,,,,Vidimo plažu daleko od koje smo bili.,Vidimo plažu od koje smo bili daleko.,ai,,,24,,,
,inter-stimulus,canvas.Screen,2_4_5,,,,,,response,7399.700000190729,184029.40000009537,184040.3,184070.6,191470.30000019073,191471.09999990463,2024-06-15T08:36:22.742Z,191508,z_ZvPU2GEy,incremental,anketa,6645cf40bc81b65c5faccf1d,participant,hcpibcu9lxfsxbpl,,,mousedown,,Vidimo plažu daleko od koje smo bili.,Vidimo plažu od koje smo bili daleko.,ai,,,24,,,
,Sequence,flow.Sequence,2_4,,,,,,completion,22180.90000019074,169260.40000009537,169258.4,169289.4,191470.30000019073,191471.30000019073,2024-06-15T08:36:22.742Z,191508,z_ZvPU2GEy,incremental,anketa,6645cf40bc81b65c5faccf1d,participant,hcpibcu9lxfsxbpl,,,,,Vidimo plažu daleko od koje smo bili.,Vidimo plažu od koje smo bili daleko.,ai,,,24,,,
,context,canvas.Screen,2_5_0_0,,,,,,response,5687,191471.5,191477.2,191508,197195,197195.7000002861,2024-06-15T08:36:28.467Z,197226.7,z_ZvPU2GEy,incremental,anketa,6645cf40bc81b65c5faccf1d,participant,hcpibcu9lxfsxbpl,,,click,,Lijepe su samo crne čizme bile u ovom ormaru.,Samo su crne čizme bile lijepe stvari u ovom ormaru.,di,,,34,CRNA; CRNE; CRNI; CRNO; CRN,Boja cipela je?,
,Timer frame,html.Frame,2_5_0,,,,,,,5687.800000190735,191471.40000009537,191477.2,191508,197195.80000019073,197195.80000019073,2024-06-15T08:36:28.467Z,197226.7,z_ZvPU2GEy,incremental,anketa,6645cf40bc81b65c5faccf1d,participant,hcpibcu9lxfsxbpl,,,,,Lijepe su samo crne čizme bile u ovom ormaru.,Samo su crne čizme bile lijepe stvari u ovom ormaru.,di,,,34,CRNA; CRNE; CRNI; CRNO; CRN,Boja cipela je?,
,stimulus,canvas.Screen,2_5_1_0,,,,,,response,3241.2999999999884,197196,197196.1,197226.7,200468,200468.90000009537,2024-06-15T08:36:31.740Z,200477.3,z_ZvPU2GEy,incremental,anketa,6645cf40bc81b65c5faccf1d,participant,hcpibcu9lxfsxbpl,,7,click @7,,Lijepe su samo crne čizme bile u ovom ormaru.,Samo su crne čizme bile lijepe stvari u ovom ormaru.,di,,,34,CRNA; CRNE; CRNI; CRNO; CRN,Boja cipela je?,
,Timer frame,html.Frame,2_5_1,,,,,,,3242.200000095356,197195.90000009537,197196.1,197226.7,200468.90000009537,200469,2024-06-15T08:36:31.740Z,200477.3,z_ZvPU2GEy,incremental,anketa,6645cf40bc81b65c5faccf1d,participant,hcpibcu9lxfsxbpl,,,,,Lijepe su samo crne čizme bile u ovom ormaru.,Samo su crne čizme bile lijepe stvari u ovom ormaru.,di,,,34,CRNA; CRNE; CRNI; CRNO; CRN,Boja cipela je?,
,Spremanje,canvas.Screen,2_5_2,,,,,,response,6277.799999904644,200469.09999990463,200464.498,200477.3,206755.09999990463,206756,2024-06-15T08:36:38.027Z,206789.4,z_ZvPU2GEy,incremental,anketa,6645cf40bc81b65c5faccf1d,participant,hcpibcu9lxfsxbpl,,,mousedown,,Lijepe su samo crne čizme bile u ovom ormaru.,Samo su crne čizme bile lijepe stvari u ovom ormaru.,di,,,34,CRNA; CRNE; CRNI; CRNO; CRN,Boja cipela je?,
,Question form,html.Form,2_5_3,,,,,,form submission,11822.800000286108,206756.09999990463,206758.6,206789.4,218612.2000002861,218612.40000009537,2024-06-15T08:36:49.883Z,218632.9,z_ZvPU2GEy,incremental,anketa,6645cf40bc81b65c5faccf1d,participant,hcpibcu9lxfsxbpl,,,,crna,Lijepe su samo crne čizme bile u ovom ormaru.,Samo su crne čizme bile lijepe stvari u ovom ormaru.,di,,,34,CRNA; CRNE; CRNI; CRNO; CRN,Boja cipela je?,
,Answer indication,canvas.Screen,2_5_4,,,,,,response,6304.100000000006,218613,218610.628,218632.9,224937,224939.09999990463,2024-06-15T08:36:56.210Z,224946.5,z_ZvPU2GEy,incremental,anketa,6645cf40bc81b65c5faccf1d,participant,hcpibcu9lxfsxbpl,,,mousedown,,Lijepe su samo crne čizme bile u ovom ormaru.,Samo su crne čizme bile lijepe stvari u ovom ormaru.,di,,,34,CRNA; CRNE; CRNI; CRNO; CRN,Boja cipela je?,
,inter-stimulus,canvas.Screen,2_5_5,,,,,,response,1341.8000001907349,224939.40000009537,224928.924,224946.5,226288.30000019073,226289.40000009537,2024-06-15T08:36:57.560Z,226321.2,z_ZvPU2GEy,incremental,anketa,6645cf40bc81b65c5faccf1d,participant,hcpibcu9lxfsxbpl,,,mousedown,,Lijepe su samo crne čizme bile u ovom ormaru.,Samo su crne čizme bile lijepe stvari u ovom ormaru.,di,,,34,CRNA; CRNE; CRNI; CRNO; CRN,Boja cipela je?,
,Sequence,flow.Sequence,2_5,,,,,,completion,34780.300000190735,191471.40000009537,191477.2,191508,226288.30000019073,226289.5,2024-06-15T08:36:57.560Z,226321.2,z_ZvPU2GEy,incremental,anketa,6645cf40bc81b65c5faccf1d,participant,hcpibcu9lxfsxbpl,,,,,Lijepe su samo crne čizme bile u ovom ormaru.,Samo su crne čizme bile lijepe stvari u ovom ormaru.,di,,,34,CRNA; CRNE; CRNI; CRNO; CRN,Boja cipela je?,
,context,canvas.Screen,2_6_0_0,,,,,,response,5961.200000095356,226289.59999990463,226289.29,226321.2,232282.40000009537,232283,2024-06-15T08:37:03.554Z,232320.6,z_ZvPU2GEy,incremental,anketa,6645cf40bc81b65c5faccf1d,participant,hcpibcu9lxfsxbpl,,,click,,Za koliko novca nevjerojatno je da je Goran prodao svoj stan??,Ono da je Goran prodao svoj stan za toliki novac nevjerojatno je..,si,31,32,18,,,
,Timer frame,html.Frame,2_6_0,,,,,,,5961.899999904621,226289.5,226289.29,226321.2,232283.09999990463,232283.09999990463,2024-06-15T08:37:03.554Z,232320.6,z_ZvPU2GEy,incremental,anketa,6645cf40bc81b65c5faccf1d,participant,hcpibcu9lxfsxbpl,,,,,Za koliko novca nevjerojatno je da je Goran prodao svoj stan??,Ono da je Goran prodao svoj stan za toliki novac nevjerojatno je..,si,31,32,18,,,
,stimulus,canvas.Screen,2_6_1_0,,,,,,response,10602.100000286096,232283.30000019073,232290.1,232320.6,242922.7000002861,242923.5,2024-06-15T08:37:14.195Z,242945.7,z_ZvPU2GEy,incremental,anketa,6645cf40bc81b65c5faccf1d,participant,hcpibcu9lxfsxbpl,,4,click @4,,Za koliko novca nevjerojatno je da je Goran prodao svoj stan??,Ono da je Goran prodao svoj stan za toliki novac nevjerojatno je..,si,31,32,18,,,
,Timer frame,html.Frame,2_6_1,,,,,,,10602.999999904627,232283.2000002861,232290.1,232320.6,242923.59999990463,242923.59999990463,2024-06-15T08:37:14.195Z,242945.7,z_ZvPU2GEy,incremental,anketa,6645cf40bc81b65c5faccf1d,participant,hcpibcu9lxfsxbpl,,,,,Za koliko novca nevjerojatno je da je Goran prodao svoj stan??,Ono da je Goran prodao svoj stan za toliki novac nevjerojatno je..,si,31,32,18,,,
,Spremanje,canvas.Screen,2_6_2,,,,,,skipped,,242923.7000002861,,,242923.59999990463,242923.80000019073,2024-06-15T08:37:14.195Z,242945.7,z_ZvPU2GEy,incremental,anketa,6645cf40bc81b65c5faccf1d,participant,hcpibcu9lxfsxbpl,,,,,Za koliko novca nevjerojatno je da je Goran prodao svoj stan??,Ono da je Goran prodao svoj stan za toliki novac nevjerojatno je..,si,31,32,18,,,
,Question form,html.Form,2_6_3,,,,,,skipped,,242923.80000019073,,,242923.59999990463,242923.90000009537,2024-06-15T08:37:14.195Z,242945.7,z_ZvPU2GEy,incremental,anketa,6645cf40bc81b65c5faccf1d,participant,hcpibcu9lxfsxbpl,,,,,Za koliko novca nevjerojatno je da je Goran prodao svoj stan??,Ono da je Goran prodao svoj stan za toliki novac nevjerojatno je..,si,31,32,18,,,
,Answer indication,canvas.Screen,2_6_4,,,,,,skipped,,242924.40000009537,,,242923.59999990463,242924.40000009537,2024-06-15T08:37:14.196Z,242945.7,z_ZvPU2GEy,incremental,anketa,6645cf40bc81b65c5faccf1d,participant,hcpibcu9lxfsxbpl,,,,,Za koliko novca nevjerojatno je da je Goran prodao svoj stan??,Ono da je Goran prodao svoj stan za toliki novac nevjerojatno je..,si,31,32,18,,,
,inter-stimulus,canvas.Screen,2_6_5,,,,,,response,7825.100000190723,242924.5,242922.628,242945.7,250770.80000019073,250771.59999990463,2024-06-15T08:37:22.043Z,250820.6,z_ZvPU2GEy,incremental,anketa,6645cf40bc81b65c5faccf1d,participant,hcpibcu9lxfsxbpl,,,mousedown,,Za koliko novca nevjerojatno je da je Goran prodao svoj stan??,Ono da je Goran prodao svoj stan za toliki novac nevjerojatno je..,si,31,32,18,,,
,Sequence,flow.Sequence,2_6,,,,,,completion,24449.600000190723,226289.5,226289.29,226321.2,250770.80000019073,250771.80000019073,2024-06-15T08:37:22.043Z,250820.6,z_ZvPU2GEy,incremental,anketa,6645cf40bc81b65c5faccf1d,participant,hcpibcu9lxfsxbpl,,,,,Za koliko novca nevjerojatno je da je Goran prodao svoj stan??,Ono da je Goran prodao svoj stan za toliki novac nevjerojatno je..,si,31,32,18,,,
,context,canvas.Screen,2_7_0_0,,,,,,response,3397.700000190729,250771.90000009537,250789.2,250820.6,254218.30000019073,254219.09999990463,2024-06-15T08:37:25.490Z,254258,z_ZvPU2GEy,incremental,anketa,6645cf40bc81b65c5faccf1d,participant,hcpibcu9lxfsxbpl,,,click,,Kakav sam vidio barku u oceanu?,Vidio sam bijelu barku u oceanu.,nf,,,41,,,2305
,Timer frame,html.Frame,2_7_0,,,,,,,3398.6000002860965,250771.90000009537,250789.2,250820.6,254219.2000002861,254219.30000019073,2024-06-15T08:37:25.491Z,254258,z_ZvPU2GEy,incremental,anketa,6645cf40bc81b65c5faccf1d,participant,hcpibcu9lxfsxbpl,,,,,Kakav sam vidio barku u oceanu?,Vidio sam bijelu barku u oceanu.,nf,,,41,,,2305
,stimulus,canvas.Screen,2_7_1_0,,,,,,response,1856,254219.40000009537,254227.1,254258,256114,256114.90000009537,2024-06-15T08:37:27.386Z,256164.4,z_ZvPU2GEy,incremental,anketa,6645cf40bc81b65c5faccf1d,participant,hcpibcu9lxfsxbpl,,1,click @1,,Kakav sam vidio barku u oceanu?,Vidio sam bijelu barku u oceanu.,nf,,,41,,,2305
,Timer frame,html.Frame,2_7_1,,,,,,,1857,254219.30000019073,254227.1,254258,256115,256115,2024-06-15T08:37:27.386Z,256164.4,z_ZvPU2GEy,incremental,anketa,6645cf40bc81b65c5faccf1d,participant,hcpibcu9lxfsxbpl,,,,,Kakav sam vidio barku u oceanu?,Vidio sam bijelu barku u oceanu.,nf,,,41,,,2305
,Spremanje,canvas.Screen,2_7_2,,,,,,skipped,,256115.09999990463,,,256115,256115.09999990463,2024-06-15T08:37:27.386Z,256164.4,z_ZvPU2GEy,incremental,anketa,6645cf40bc81b65c5faccf1d,participant,hcpibcu9lxfsxbpl,,,,,Kakav sam vidio barku u oceanu?,Vidio sam bijelu barku u oceanu.,nf,,,41,,,2305
,Question form,html.Form,2_7_3,,,,,,skipped,,256115.09999990463,,,256115,256115.2000002861,2024-06-15T08:37:27.386Z,256164.4,z_ZvPU2GEy,incremental,anketa,6645cf40bc81b65c5faccf1d,participant,hcpibcu9lxfsxbpl,,,,,Kakav sam vidio barku u oceanu?,Vidio sam bijelu barku u oceanu.,nf,,,41,,,2305
,Answer indication,canvas.Screen,2_7_4,,,,,,skipped,,256115.7000002861,,,256115,256115.7000002861,2024-06-15T08:37:27.387Z,256164.4,z_ZvPU2GEy,incremental,anketa,6645cf40bc81b65c5faccf1d,participant,hcpibcu9lxfsxbpl,,,,,Kakav sam vidio barku u oceanu?,Vidio sam bijelu barku u oceanu.,nf,,,41,,,2305
,inter-stimulus,canvas.Screen,2_7_5,,,,,,response,5980.300000286108,256115.80000019073,256133.2,256164.4,262144.7000002861,262145.80000019073,2024-06-15T08:37:33.417Z,262164.4,z_ZvPU2GEy,incremental,anketa,6645cf40bc81b65c5faccf1d,participant,hcpibcu9lxfsxbpl,,,mousedown,,Kakav sam vidio barku u oceanu?,Vidio sam bijelu barku u oceanu.,nf,,,41,,,2305
,Sequence,flow.Sequence,2_7,,,,,,completion,11324.100000286096,250771.80000019073,250789.2,250820.6,262144.7000002861,262145.90000009537,2024-06-15T08:37:33.417Z,262164.4,z_ZvPU2GEy,incremental,anketa,6645cf40bc81b65c5faccf1d,participant,hcpibcu9lxfsxbpl,,,,,Kakav sam vidio barku u oceanu?,Vidio sam bijelu barku u oceanu.,nf,,,41,,,2305
,context,canvas.Screen,2_8_0_0,,,,,,response,2957.5999999999767,262146.09999990463,262133.67,262164.4,265122,265122.7000002861,2024-06-15T08:37:36.394Z,265133.2,z_ZvPU2GEy,incremental,anketa,6645cf40bc81b65c5faccf1d,participant,hcpibcu9lxfsxbpl,,,click,,Od čega je djed otišao u sanatorij odmarati?,Djed je otišao u sanatorij odmarati od gužve i buke..,ai,,26,30,,,
,Timer frame,html.Frame,2_8_0,,,,,,,2958.500000095344,262146,262133.67,262164.4,265122.90000009537,265122.90000009537,2024-06-15T08:37:36.394Z,265133.2,z_ZvPU2GEy,incremental,anketa,6645cf40bc81b65c5faccf1d,participant,hcpibcu9lxfsxbpl,,,,,Od čega je djed otišao u sanatorij odmarati?,Djed je otišao u sanatorij odmarati od gužve i buke..,ai,,26,30,,,
,stimulus,canvas.Screen,2_8_1_0,,,,,,response,3356.600000190723,265123.09999990463,265121.298,265133.2,268489.80000019073,268490.7000002861,2024-06-15T08:37:39.762Z,268508.1,z_ZvPU2GEy,incremental,anketa,6645cf40bc81b65c5faccf1d,participant,hcpibcu9lxfsxbpl,,7,click @7,,Od čega je djed otišao u sanatorij odmarati?,Djed je otišao u sanatorij odmarati od gužve i buke..,ai,,26,30,,,
,Timer frame,html.Frame,2_8_1,,,,,,,3357.600000190723,265123,265121.298,265133.2,268490.80000019073,268490.90000009537,2024-06-15T08:37:39.762Z,268508.1,z_ZvPU2GEy,incremental,anketa,6645cf40bc81b65c5faccf1d,participant,hcpibcu9lxfsxbpl,,,,,Od čega je djed otišao u sanatorij odmarati?,Djed je otišao u sanatorij odmarati od gužve i buke..,ai,,26,30,,,
,Spremanje,canvas.Screen,2_8_2,,,,,,skipped,,268490.90000009537,,,268490.80000019073,268491.09999990463,2024-06-15T08:37:39.762Z,268508.1,z_ZvPU2GEy,incremental,anketa,6645cf40bc81b65c5faccf1d,participant,hcpibcu9lxfsxbpl,,,,,Od čega je djed otišao u sanatorij odmarati?,Djed je otišao u sanatorij odmarati od gužve i buke..,ai,,26,30,,,
,Question form,html.Form,2_8_3,,,,,,skipped,,268491.09999990463,,,268490.80000019073,268491.2000002861,2024-06-15T08:37:39.762Z,268508.1,z_ZvPU2GEy,incremental,anketa,6645cf40bc81b65c5faccf1d,participant,hcpibcu9lxfsxbpl,,,,,Od čega je djed otišao u sanatorij odmarati?,Djed je otišao u sanatorij odmarati od gužve i buke..,ai,,26,30,,,
,Answer indication,canvas.Screen,2_8_4,,,,,,skipped,,268491.7000002861,,,268490.80000019073,268491.80000019073,2024-06-15T08:37:39.763Z,268508.1,z_ZvPU2GEy,incremental,anketa,6645cf40bc81b65c5faccf1d,participant,hcpibcu9lxfsxbpl,,,,,Od čega je djed otišao u sanatorij odmarati?,Djed je otišao u sanatorij odmarati od gužve i buke..,ai,,26,30,,,
,inter-stimulus,canvas.Screen,2_8_5,,,,,,response,7953.900000000023,268491.90000009537,268479.032,268508.1,276462,276462.90000009537,2024-06-15T08:37:47.734Z,276508.1,z_ZvPU2GEy,incremental,anketa,6645cf40bc81b65c5faccf1d,participant,hcpibcu9lxfsxbpl,,,mousedown,,Od čega je djed otišao u sanatorij odmarati?,Djed je otišao u sanatorij odmarati od gužve i buke..,ai,,26,30,,,
,Sequence,flow.Sequence,2_8,,,,,,completion,14297.599999999977,262145.90000009537,262133.67,262164.4,276462,276463.09999990463,2024-06-15T08:37:47.734Z,276508.1,z_ZvPU2GEy,incremental,anketa,6645cf40bc81b65c5faccf1d,participant,hcpibcu9lxfsxbpl,,,,,Od čega je djed otišao u sanatorij odmarati?,Djed je otišao u sanatorij odmarati od gužve i buke..,ai,,26,30,,,
,context,canvas.Screen,2_9_0_0,,,,,,response,6333.600000286126,276463.2000002861,276476.7,276508.1,282841.7000002861,282842.40000009537,2024-06-15T08:37:54.114Z,282851.7,z_ZvPU2GEy,incremental,anketa,6645cf40bc81b65c5faccf1d,participant,hcpibcu9lxfsxbpl,,,click,,Što bismo voljeli da Drago napravi bez prigovora??,Voljeli bismo da Drago opere auto bez prigovora..,si,26,22,16,,,
,Timer frame,html.Frame,2_9_0,,,,,,,6334.499999904656,276463.2000002861,276476.7,276508.1,282842.59999990463,282842.59999990463,2024-06-15T08:37:54.114Z,282851.7,z_ZvPU2GEy,incremental,anketa,6645cf40bc81b65c5faccf1d,participant,hcpibcu9lxfsxbpl,,,,,Što bismo voljeli da Drago napravi bez prigovora??,Voljeli bismo da Drago opere auto bez prigovora..,si,26,22,16,,,
,stimulus,canvas.Screen,2_9_1_0,,,,,,response,3229.899999904621,282842.80000019073,282839.398,282851.7,286081.59999990463,286082.5,2024-06-15T08:37:57.354Z,286101.9,z_ZvPU2GEy,incremental,anketa,6645cf40bc81b65c5faccf1d,participant,hcpibcu9lxfsxbpl,,7,click @7,,Što bismo voljeli da Drago napravi bez prigovora??,Voljeli bismo da Drago opere auto bez prigovora..,si,26,22,16,,,
,Timer frame,html.Frame,2_9_1,,,,,,,3230.899999904621,282842.7000002861,282839.398,282851.7,286082.59999990463,286082.7000002861,2024-06-15T08:37:57.354Z,286101.9,z_ZvPU2GEy,incremental,anketa,6645cf40bc81b65c5faccf1d,participant,hcpibcu9lxfsxbpl,,,,,Što bismo voljeli da Drago napravi bez prigovora??,Voljeli bismo da Drago opere auto bez prigovora..,si,26,22,16,,,
,Spremanje,canvas.Screen,2_9_2,,,,,,skipped,,286082.7000002861,,,286082.59999990463,286082.80000019073,2024-06-15T08:37:57.354Z,286101.9,z_ZvPU2GEy,incremental,anketa,6645cf40bc81b65c5faccf1d,participant,hcpibcu9lxfsxbpl,,,,,Što bismo voljeli da Drago napravi bez prigovora??,Voljeli bismo da Drago opere auto bez prigovora..,si,26,22,16,,,
,Question form,html.Form,2_9_3,,,,,,skipped,,286082.80000019073,,,286082.59999990463,286082.90000009537,2024-06-15T08:37:57.354Z,286101.9,z_ZvPU2GEy,incremental,anketa,6645cf40bc81b65c5faccf1d,participant,hcpibcu9lxfsxbpl,,,,,Što bismo voljeli da Drago napravi bez prigovora??,Voljeli bismo da Drago opere auto bez prigovora..,si,26,22,16,,,
,Answer indication,canvas.Screen,2_9_4,,,,,,skipped,,286083.30000019073,,,286082.59999990463,286083.40000009537,2024-06-15T08:37:57.355Z,286101.9,z_ZvPU2GEy,incremental,anketa,6645cf40bc81b65c5faccf1d,participant,hcpibcu9lxfsxbpl,,,,,Što bismo voljeli da Drago napravi bez prigovora??,Voljeli bismo da Drago opere auto bez prigovora..,si,26,22,16,,,
,inter-stimulus,canvas.Screen,2_9_5,,,,,,response,6334.800000286079,286083.40000009537,286072.832,286101.9,292436.7000002861,292437.59999990463,2024-06-15T08:38:03.709Z,292445.9,z_ZvPU2GEy,incremental,anketa,6645cf40bc81b65c5faccf1d,participant,hcpibcu9lxfsxbpl,,,mousedown,,Što bismo voljeli da Drago napravi bez prigovora??,Voljeli bismo da Drago opere auto bez prigovora..,si,26,22,16,,,
,Sequence,flow.Sequence,2_9,,,,,,completion,15928.600000286126,276463.09999990463,276476.7,276508.1,292436.7000002861,292437.7000002861,2024-06-15T08:38:03.709Z,292445.9,z_ZvPU2GEy,incremental,anketa,6645cf40bc81b65c5faccf1d,participant,hcpibcu9lxfsxbpl,,,,,Što bismo voljeli da Drago napravi bez prigovora??,Voljeli bismo da Drago opere auto bez prigovora..,si,26,22,16,,,
,context,canvas.Screen,2_10_0_0,,,,,,response,3154.9000001907116,292437.90000009537,292433.798,292445.9,295600.80000019073,295601.59999990463,2024-06-15T08:38:06.873Z,295632.9,z_ZvPU2GEy,incremental,anketa,6645cf40bc81b65c5faccf1d,participant,hcpibcu9lxfsxbpl,,,click,,"To su oni siromasi, koje je htio nahraniti i moliti se bogu..",Hoće nahraniti siromahe i moliti se bogu.,csi,42,0,6,,,
,Timer frame,html.Frame,2_10_0,,,,,,,3155.800000286079,292437.90000009537,292433.798,292445.9,295601.7000002861,295601.80000019073,2024-06-15T08:38:06.873Z,295632.9,z_ZvPU2GEy,incremental,anketa,6645cf40bc81b65c5faccf1d,participant,hcpibcu9lxfsxbpl,,,,,"To su oni siromasi, koje je htio nahraniti i moliti se bogu..",Hoće nahraniti siromahe i moliti se bogu.,csi,42,0,6,,,
,stimulus,canvas.Screen,2_10_1_0,,,,,,response,7888.400000190712,295601.90000009537,295602,295632.9,303521.30000019073,303522.2000002861,2024-06-15T08:38:14.794Z,303570.7,z_ZvPU2GEy,incremental,anketa,6645cf40bc81b65c5faccf1d,participant,hcpibcu9lxfsxbpl,,7,click @7,,"To su oni siromasi, koje je htio nahraniti i moliti se bogu..",Hoće nahraniti siromahe i moliti se bogu.,csi,42,0,6,,,
,Timer frame,html.Frame,2_10_1,,,,,,,7889.400000190712,295601.80000019073,295602,295632.9,303522.30000019073,303522.30000019073,2024-06-15T08:38:14.794Z,303570.7,z_ZvPU2GEy,incremental,anketa,6645cf40bc81b65c5faccf1d,participant,hcpibcu9lxfsxbpl,,,,,"To su oni siromasi, koje je htio nahraniti i moliti se bogu..",Hoće nahraniti siromahe i moliti se bogu.,csi,42,0,6,,,
,Spremanje,canvas.Screen,2_10_2,,,,,,skipped,,303522.40000009537,,,303522.30000019073,303522.40000009537,2024-06-15T08:38:14.794Z,303570.7,z_ZvPU2GEy,incremental,anketa,6645cf40bc81b65c5faccf1d,participant,hcpibcu9lxfsxbpl,,,,,"To su oni siromasi, koje je htio nahraniti i moliti se bogu..",Hoće nahraniti siromahe i moliti se bogu.,csi,42,0,6,,,
,Question form,html.Form,2_10_3,,,,,,skipped,,303522.5,,,303522.30000019073,303522.5,2024-06-15T08:38:14.794Z,303570.7,z_ZvPU2GEy,incremental,anketa,6645cf40bc81b65c5faccf1d,participant,hcpibcu9lxfsxbpl,,,,,"To su oni siromasi, koje je htio nahraniti i moliti se bogu..",Hoće nahraniti siromahe i moliti se bogu.,csi,42,0,6,,,
,Answer indication,canvas.Screen,2_10_4,,,,,,skipped,,303523.09999990463,,,303522.30000019073,303523.09999990463,2024-06-15T08:38:14.795Z,303570.7,z_ZvPU2GEy,incremental,anketa,6645cf40bc81b65c5faccf1d,participant,hcpibcu9lxfsxbpl,,,,,"To su oni siromasi, koje je htio nahraniti i moliti se bogu..",Hoće nahraniti siromahe i moliti se bogu.,csi,42,0,6,,,
,inter-stimulus,canvas.Screen,2_10_5,,,,,,response,7724.500000286091,303523.09999990463,303539.3,303570.7,311295.2000002861,311297.2000002861,2024-06-15T08:38:22.569Z,311320.7,z_ZvPU2GEy,incremental,anketa,6645cf40bc81b65c5faccf1d,participant,hcpibcu9lxfsxbpl,,,mousedown,,"To su oni siromasi, koje je htio nahraniti i moliti se bogu..",Hoće nahraniti siromahe i moliti se bogu.,csi,42,0,6,,,
,Sequence,flow.Sequence,2_10,,,,,,completion,18849.30000028608,292437.80000019073,292433.798,292445.9,311295.2000002861,311297.59999990463,2024-06-15T08:38:22.569Z,311320.7,z_ZvPU2GEy,incremental,anketa,6645cf40bc81b65c5faccf1d,participant,hcpibcu9lxfsxbpl,,,,,"To su oni siromasi, koje je htio nahraniti i moliti se bogu..",Hoće nahraniti siromahe i moliti se bogu.,csi,42,0,6,,,
,context,canvas.Screen,2_11_0_0,,,,,,response,3839.7999999999884,311298,311289.4,311320.7,315160.5,315161.2000002861,2024-06-15T08:38:26.433Z,315164.7,z_ZvPU2GEy,incremental,anketa,6645cf40bc81b65c5faccf1d,participant,hcpibcu9lxfsxbpl,,,click,,Tko ono da je prodao svoj stan za toliki novac nevjerojatno je??,Ono da je Goran prodao svoj stan za toliki novac nevjerojatno je..,si,30,32,17,,,
,Timer frame,html.Frame,2_11_0,,,,,,,3840.700000095356,311297.80000019073,311289.4,311320.7,315161.40000009537,315161.40000009537,2024-06-15T08:38:26.433Z,315164.7,z_ZvPU2GEy,incremental,anketa,6645cf40bc81b65c5faccf1d,participant,hcpibcu9lxfsxbpl,,,,,Tko ono da je prodao svoj stan za toliki novac nevjerojatno je??,Ono da je Goran prodao svoj stan za toliki novac nevjerojatno je..,si,30,32,17,,,
,stimulus,canvas.Screen,2_11_1_0,,,,,,response,2796.600000190723,315161.59999990463,315151.898,315164.7,317961.30000019073,317962.2000002861,2024-06-15T08:38:29.234Z,318008.2,z_ZvPU2GEy,incremental,anketa,6645cf40bc81b65c5faccf1d,participant,hcpibcu9lxfsxbpl,,1,click @1,,Tko ono da je prodao svoj stan za toliki novac nevjerojatno je??,Ono da je Goran prodao svoj stan za toliki novac nevjerojatno je..,si,30,32,17,,,
,Timer frame,html.Frame,2_11_1,,,,,,,2797.5000002860907,315161.40000009537,315151.898,315164.7,317962.2000002861,317962.30000019073,2024-06-15T08:38:29.234Z,318008.2,z_ZvPU2GEy,incremental,anketa,6645cf40bc81b65c5faccf1d,participant,hcpibcu9lxfsxbpl,,,,,Tko ono da je prodao svoj stan za toliki novac nevjerojatno je??,Ono da je Goran prodao svoj stan za toliki novac nevjerojatno je..,si,30,32,17,,,
,Spremanje,canvas.Screen,2_11_2,,,,,,skipped,,317962.40000009537,,,317962.2000002861,317962.40000009537,2024-06-15T08:38:29.234Z,318008.2,z_ZvPU2GEy,incremental,anketa,6645cf40bc81b65c5faccf1d,participant,hcpibcu9lxfsxbpl,,,,,Tko ono da je prodao svoj stan za toliki novac nevjerojatno je??,Ono da je Goran prodao svoj stan za toliki novac nevjerojatno je..,si,30,32,17,,,
,Question form,html.Form,2_11_3,,,,,,skipped,,317962.5,,,317962.2000002861,317962.5,2024-06-15T08:38:29.234Z,318008.2,z_ZvPU2GEy,incremental,anketa,6645cf40bc81b65c5faccf1d,participant,hcpibcu9lxfsxbpl,,,,,Tko ono da je prodao svoj stan za toliki novac nevjerojatno je??,Ono da je Goran prodao svoj stan za toliki novac nevjerojatno je..,si,30,32,17,,,
,Answer indication,canvas.Screen,2_11_4,,,,,,skipped,,317963.09999990463,,,317962.2000002861,317963.2000002861,2024-06-15T08:38:29.235Z,318008.2,z_ZvPU2GEy,incremental,anketa,6645cf40bc81b65c5faccf1d,participant,hcpibcu9lxfsxbpl,,,,,Tko ono da je prodao svoj stan za toliki novac nevjerojatno je??,Ono da je Goran prodao svoj stan za toliki novac nevjerojatno je..,si,30,32,17,,,
,inter-stimulus,canvas.Screen,2_11_5,,,,,,response,4156.600000190723,317963.2000002861,317977.8,318008.2,322164.80000019073,322165.59999990463,2024-06-15T08:38:33.437Z,322195.6,z_ZvPU2GEy,incremental,anketa,6645cf40bc81b65c5faccf1d,participant,hcpibcu9lxfsxbpl,,,mousedown,,Tko ono da je prodao svoj stan za toliki novac nevjerojatno je??,Ono da je Goran prodao svoj stan za toliki novac nevjerojatno je..,si,30,32,17,,,
,Sequence,flow.Sequence,2_11,,,,,,completion,10844.100000190723,311297.7000002861,311289.4,311320.7,322164.80000019073,322165.7000002861,2024-06-15T08:38:33.438Z,322195.6,z_ZvPU2GEy,incremental,anketa,6645cf40bc81b65c5faccf1d,participant,hcpibcu9lxfsxbpl,,,,,Tko ono da je prodao svoj stan za toliki novac nevjerojatno je??,Ono da je Goran prodao svoj stan za toliki novac nevjerojatno je..,si,30,32,17,,,
,context,canvas.Screen,2_12_0_0,,,,,,response,2229.200000190758,322165.80000019073,322164.8,322195.6,324424.80000019073,324425.59999990463,2024-06-15T08:38:35.697Z,324445.6,z_ZvPU2GEy,incremental,anketa,6645cf40bc81b65c5faccf1d,participant,hcpibcu9lxfsxbpl,,,click,,Odakle si pješke ići prema Zadru?,Ideš pješke od Splita prema Zadru.,nf,,,44,,,
,Timer frame,html.Frame,2_12_0,,,,,,,2229.999999904656,322165.80000019073,322164.8,322195.6,324425.59999990463,324425.7000002861,2024-06-15T08:38:35.698Z,324445.6,z_ZvPU2GEy,incremental,anketa,6645cf40bc81b65c5faccf1d,participant,hcpibcu9lxfsxbpl,,,,,Odakle si pješke ići prema Zadru?,Ideš pješke od Splita prema Zadru.,nf,,,44,,,
,stimulus,canvas.Screen,2_12_1_0,,,,,,response,10002.80000009539,324425.80000019073,324416.532,324445.6,334448.40000009537,334449.30000019073,2024-06-15T08:38:45.721Z,334508,z_ZvPU2GEy,incremental,anketa,6645cf40bc81b65c5faccf1d,participant,hcpibcu9lxfsxbpl,,4,click @4,,Odakle si pješke ići prema Zadru?,Ideš pješke od Splita prema Zadru.,nf,,,44,,,
,Timer frame,html.Frame,2_12_1,,,,,,,10003.80000009539,324425.7000002861,324416.532,324445.6,334449.40000009537,334449.40000009537,2024-06-15T08:38:45.721Z,334508,z_ZvPU2GEy,incremental,anketa,6645cf40bc81b65c5faccf1d,participant,hcpibcu9lxfsxbpl,,,,,Odakle si pješke ići prema Zadru?,Ideš pješke od Splita prema Zadru.,nf,,,44,,,
,Spremanje,canvas.Screen,2_12_2,,,,,,skipped,,334449.5,,,334449.40000009537,334449.59999990463,2024-06-15T08:38:45.721Z,334508,z_ZvPU2GEy,incremental,anketa,6645cf40bc81b65c5faccf1d,participant,hcpibcu9lxfsxbpl,,,,,Odakle si pješke ići prema Zadru?,Ideš pješke od Splita prema Zadru.,nf,,,44,,,
,Question form,html.Form,2_12_3,,,,,,skipped,,334449.59999990463,,,334449.40000009537,334449.7000002861,2024-06-15T08:38:45.721Z,334508,z_ZvPU2GEy,incremental,anketa,6645cf40bc81b65c5faccf1d,participant,hcpibcu9lxfsxbpl,,,,,Odakle si pješke ići prema Zadru?,Ideš pješke od Splita prema Zadru.,nf,,,44,,,
,Answer indication,canvas.Screen,2_12_4,,,,,,skipped,,334450.09999990463,,,334449.40000009537,334450.2000002861,2024-06-15T08:38:45.722Z,334508,z_ZvPU2GEy,incremental,anketa,6645cf40bc81b65c5faccf1d,participant,hcpibcu9lxfsxbpl,,,,,Odakle si pješke ići prema Zadru?,Ideš pješke od Splita prema Zadru.,nf,,,44,,,
,inter-stimulus,canvas.Screen,2_12_5,,,,,,response,8642.400000095367,334450.30000019073,334477.5,334508,343150.40000009537,343151.30000019073,2024-06-15T08:38:54.423Z,343164.4,z_ZvPU2GEy,incremental,anketa,6645cf40bc81b65c5faccf1d,participant,hcpibcu9lxfsxbpl,,,mousedown,,Odakle si pješke ići prema Zadru?,Ideš pješke od Splita prema Zadru.,nf,,,44,,,
,Sequence,flow.Sequence,2_12,,,,,,completion,20954.80000009539,322165.80000019073,322164.8,322195.6,343150.40000009537,343151.40000009537,2024-06-15T08:38:54.423Z,343164.4,z_ZvPU2GEy,incremental,anketa,6645cf40bc81b65c5faccf1d,participant,hcpibcu9lxfsxbpl,,,,,Odakle si pješke ići prema Zadru?,Ideš pješke od Splita prema Zadru.,nf,,,44,,,
,context,canvas.Screen,2_13_0_0,,,,,,response,5341.599999999977,343151.59999990463,343142.128,343164.4,348506,348506.7000002861,2024-06-15T08:38:59.779Z,348508.1,z_ZvPU2GEy,incremental,anketa,6645cf40bc81b65c5faccf1d,participant,hcpibcu9lxfsxbpl,,,click,,Čije sam cvijeće izašao iz kuće i zaboravio zaliti?,Izašao sam iz kuće i zaboravio zaliti majkino cvijeće.,csi,0,0,4,ZALITI MAJKINO CVIJEĆE; ZALITI MAMINO CVIJECE; ZALITI CVIJECE MAJKE; ZALITI MAJČINO CVIJEĆE; ZALITI CVIJEĆE MAJKE; ZALITI MAJKINO CVIJECE; MAJKINO CVIJEĆE ZALITI; MAJKINO CVIJECE ZALITI; ZALITI CVIJECE; ZALITI CVIJEĆE; ZALITI CVJEĆE; ZALITI CVJECE,Što sam zaboravio napraviti?,
,Timer frame,html.Frame,2_13_0,,,,,,,5342.400000190712,343151.40000009537,343142.128,343164.4,348506.80000019073,348506.90000009537,2024-06-15T08:38:59.779Z,348508.1,z_ZvPU2GEy,incremental,anketa,6645cf40bc81b65c5faccf1d,participant,hcpibcu9lxfsxbpl,,,,,Čije sam cvijeće izašao iz kuće i zaboravio zaliti?,Izašao sam iz kuće i zaboravio zaliti majkino cvijeće.,csi,0,0,4,ZALITI MAJKINO CVIJEĆE; ZALITI MAMINO CVIJECE; ZALITI CVIJECE MAJKE; ZALITI MAJČINO CVIJEĆE; ZALITI CVIJEĆE MAJKE; ZALITI MAJKINO CVIJECE; MAJKINO CVIJEĆE ZALITI; MAJKINO CVIJECE ZALITI; ZALITI CVIJECE; ZALITI CVIJEĆE; ZALITI CVJEĆE; ZALITI CVJECE,Što sam zaboravio napraviti?,
,stimulus,canvas.Screen,2_13_1_0,,,,,,response,9300.900000000023,348507,348501.954,348508.1,357809,357809.80000019073,2024-06-15T08:39:09.082Z,357852.7,z_ZvPU2GEy,incremental,anketa,6645cf40bc81b65c5faccf1d,participant,hcpibcu9lxfsxbpl,,1,click @1,,Čije sam cvijeće izašao iz kuće i zaboravio zaliti?,Izašao sam iz kuće i zaboravio zaliti majkino cvijeće.,csi,0,0,4,ZALITI MAJKINO CVIJEĆE; ZALITI MAMINO CVIJECE; ZALITI CVIJECE MAJKE; ZALITI MAJČINO CVIJEĆE; ZALITI CVIJEĆE MAJKE; ZALITI MAJKINO CVIJECE; MAJKINO CVIJEĆE ZALITI; MAJKINO CVIJECE ZALITI; ZALITI CVIJECE; ZALITI CVIJEĆE; ZALITI CVJEĆE; ZALITI CVJECE,Što sam zaboravio napraviti?,
,Timer frame,html.Frame,2_13_1,,,,,,,9301.80000009539,348506.90000009537,348501.954,348508.1,357809.90000009537,357810,2024-06-15T08:39:09.082Z,357852.7,z_ZvPU2GEy,incremental,anketa,6645cf40bc81b65c5faccf1d,participant,hcpibcu9lxfsxbpl,,,,,Čije sam cvijeće izašao iz kuće i zaboravio zaliti?,Izašao sam iz kuće i zaboravio zaliti majkino cvijeće.,csi,0,0,4,ZALITI MAJKINO CVIJEĆE; ZALITI MAMINO CVIJECE; ZALITI CVIJECE MAJKE; ZALITI MAJČINO CVIJEĆE; ZALITI CVIJEĆE MAJKE; ZALITI MAJKINO CVIJECE; MAJKINO CVIJEĆE ZALITI; MAJKINO CVIJECE ZALITI; ZALITI CVIJECE; ZALITI CVIJEĆE; ZALITI CVJEĆE; ZALITI CVJECE,Što sam zaboravio napraviti?,
,Spremanje,canvas.Screen,2_13_2,,,,,,response,2081.600000190723,357810,357820.7,357852.7,359934.30000019073,359935.7000002861,2024-06-15T08:39:11.207Z,359945.5,z_ZvPU2GEy,incremental,anketa,6645cf40bc81b65c5faccf1d,participant,hcpibcu9lxfsxbpl,,,mousedown,,Čije sam cvijeće izašao iz kuće i zaboravio zaliti?,Izašao sam iz kuće i zaboravio zaliti majkino cvijeće.,csi,0,0,4,ZALITI MAJKINO CVIJEĆE; ZALITI MAMINO CVIJECE; ZALITI CVIJECE MAJKE; ZALITI MAJČINO CVIJEĆE; ZALITI CVIJEĆE MAJKE; ZALITI MAJKINO CVIJECE; MAJKINO CVIJEĆE ZALITI; MAJKINO CVIJECE ZALITI; ZALITI CVIJECE; ZALITI CVIJEĆE; ZALITI CVJEĆE; ZALITI CVJECE,Što sam zaboravio napraviti?,
,Question form,html.Form,2_13_3,,,,,,form submission,11921.300000190735,359935.80000019073,359924.73,359945.5,371866.80000019073,371866.90000009537,2024-06-15T08:39:23.138Z,371883,z_ZvPU2GEy,incremental,anketa,6645cf40bc81b65c5faccf1d,participant,hcpibcu9lxfsxbpl,,,,zaliti cvece,Čije sam cvijeće izašao iz kuće i zaboravio zaliti?,Izašao sam iz kuće i zaboravio zaliti majkino cvijeće.,csi,0,0,4,ZALITI MAJKINO CVIJEĆE; ZALITI MAMINO CVIJECE; ZALITI CVIJECE MAJKE; ZALITI MAJČINO CVIJEĆE; ZALITI CVIJEĆE MAJKE; ZALITI MAJKINO CVIJECE; MAJKINO CVIJEĆE ZALITI; MAJKINO CVIJECE ZALITI; ZALITI CVIJECE; ZALITI CVIJEĆE; ZALITI CVJEĆE; ZALITI CVJECE,Što sam zaboravio napraviti?,
,Answer indication,canvas.Screen,2_13_4,,,,,,response,3552.800000190735,371867.7000002861,371862.36,371883,375435.80000019073,375436.7000002861,2024-06-15T08:39:26.708Z,375445.6,z_ZvPU2GEy,incremental,anketa,6645cf40bc81b65c5faccf1d,participant,hcpibcu9lxfsxbpl,,,mousedown,,Čije sam cvijeće izašao iz kuće i zaboravio zaliti?,Izašao sam iz kuće i zaboravio zaliti majkino cvijeće.,csi,0,0,4,ZALITI MAJKINO CVIJEĆE; ZALITI MAMINO CVIJECE; ZALITI CVIJECE MAJKE; ZALITI MAJČINO CVIJEĆE; ZALITI CVIJEĆE MAJKE; ZALITI MAJKINO CVIJECE; MAJKINO CVIJEĆE ZALITI; MAJKINO CVIJECE ZALITI; ZALITI CVIJECE; ZALITI CVIJEĆE; ZALITI CVJEĆE; ZALITI CVJECE,Što sam zaboravio napraviti?,
,inter-stimulus,canvas.Screen,2_13_5,,,,,,response,2688.8000000953907,375436.80000019073,375427.592,375445.6,378134.40000009537,378135.30000019073,2024-06-15T08:39:29.406Z,378164.4,z_ZvPU2GEy,incremental,anketa,6645cf40bc81b65c5faccf1d,participant,hcpibcu9lxfsxbpl,,,mousedown,,Čije sam cvijeće izašao iz kuće i zaboravio zaliti?,Izašao sam iz kuće i zaboravio zaliti majkino cvijeće.,csi,0,0,4,ZALITI MAJKINO CVIJEĆE; ZALITI MAMINO CVIJECE; ZALITI CVIJECE MAJKE; ZALITI MAJČINO CVIJEĆE; ZALITI CVIJEĆE MAJKE; ZALITI MAJKINO CVIJECE; MAJKINO CVIJEĆE ZALITI; MAJKINO CVIJECE ZALITI; ZALITI CVIJECE; ZALITI CVIJEĆE; ZALITI CVJEĆE; ZALITI CVJECE,Što sam zaboravio napraviti?,
